ros_time,msg_stamp,selected_mode,selected_wz,vesc_wz,livox_wz,livox_wz_raw,livox_bias_wz,vesc_weight,livox_weight,vesc_valid,livox_valid,fallback_used,vesc_header_stamp,livox_header_stamp,angular_velocity_x,angular_velocity_y,angular_velocity_z,linear_acceleration_x,linear_acceleration_y,linear_acceleration_z
1786618140.4062672,1786618140.405941,vesc,0.00017412421449626149,0.00017412421449626149,nan,nan,0.01,1,0,1,0,0,1786618140.405941,nan,-0.0012260522666965789,-0.0024168218101388111,0.00017412421449626149,-0.15271370202669221,0.083437614768907764,9.5472569424775884
1786618140.4309015,1786618140.4253991,vesc,-0.0009035568525157311,-0.0009035568525157311,nan,nan,0.01,1,0,1,0,0,1786618140.4253991,nan,-0.0022787488710371622,-0.0024139256224533496,-0.0009035568525157311,-0.10605253540058523,0.097522936611525779,9.6532307140527109
1786618140.4482713,1786618140.4454153,vesc,0.0012450379525107266,0.0012450379525107266,nan,nan,0.01,1,0,1,0,0,1786618140.4454153,nan,-0.0012385462372793334,-0.00028916311832836143,0.0012450379525107266,-0.12521137684657102,0.063993392641776836,9.6529161338371523
1786618140.4655592,1786618140.4651456,vesc,0.00017985066102574486,0.00017985066102574486,nan,nan,0.01,1,0,1,0,0,1786618140.4651456,nan,-0.0012260522666965789,-0.00028630022015652622,0.00017985066102574486,-0.15260134411861426,0.088253381786270069,9.5376908972609726
1786618140.4852934,1786618140.4851158,vesc,0.0023227191170505914,0.0023227191170505914,nan,nan,0.01,1,0,1,0,0,1786618140.4851158,nan,-0.00018584859264144957,-0.00029206034631112335,0.0023227191170505914,-0.097091092308295934,0.054270824764468983,9.7059141293349285
1786618140.5054181,1786618140.5051684,vesc,-0.00088819985372397866,-0.00088819985372397866,nan,nan,0.01,1,0,1,0,0,1786618140.5051684,nan,-0.0012135582961138242,-0.001348698637124484,-0.00088819985372397866,-0.14380842875216704,0.14076309821108168,9.6050005384018959
1786618140.521796,1786618140.5214393,vesc,0.00016449369474328318,0.00016449369474328318,nan,nan,0.01,1,0,1,0,0,1786618140.5214393,nan,-0.0022912428416199163,-0.0013515272054853921,0.00016449369474328318,-0.10560310376827342,0.068885794732562289,9.6148355555500302
1786618140.5454209,1786618140.5452056,vesc,0.00016735691800802484,0.00016735691800802484,nan,nan,0.01,1,0,1,0,0,1786618140.5452056,nan,-0.0022912428416199163,-0.00028626693064290023,0.00016735691800802484,-0.12966401348383361,0.064070795162287197,9.6241209344033223
1786618140.5655522,1786618140.5653236,vesc,0.00019234440404346486,0.00019234440404346486,nan,nan,0.01,1,0,1,0,0,1786618140.5653236,nan,-0.00016086117162459086,-0.00028633454996745305,0.00019234440404346486,-0.087455501767538912,0.10218362449962193,9.7013649953627237
1786618140.5862067,1786618140.5854583,vesc,0.0012450379525107266,0.0012450379525107266,nan,nan,0.01,1,0,1,0,0,1786618140.5854583,nan,-0.0012385462372793334,-0.00028916311832836143,0.0012450379525107266,-0.10695141693775856,0.044626719215553834,9.7297239924902215
1786618140.6060274,1786618140.6055367,vesc,-0.00088819985372397866,-0.00088819985372397866,nan,nan,0.01,1,0,1,0,0,1786618140.6055367,nan,-0.0012135582961138242,-0.001348698637124484,-0.00088819985372397866,-0.12363836613347967,0.11225406517803371,9.5189330286455061
1786618140.6288054,1786618140.6254687,vesc,0.0023198556987301055,0.0023198556987301055,nan,nan,0.01,1,0,1,0,0,1786618140.6254687,nan,-0.00018584859264144957,-0.0013573206211536155,0.0023198556987301055,-0.11123550757662937,0.059112794618094711,9.6865996057655366
1786618140.6456623,1786618140.6453955,vesc,0.00018375473424923978,0.00018375473424923978,nan,nan,0.01,1,0,1,0,0,1786618140.6453955,nan,-0.00016086117162459086,-0.00348211641479223,0.00018375473424923978,-0.13406048030333206,0.088111184804539278,9.5906023539633907
1786618140.6698701,1786618140.6653566,vesc,0.00020770137032592652,0.00020770137032592652,nan,nan,0.01,1,0,1,0,0,1786618140.6653566,nan,0.00090432992344739716,0.00077889243536141293,0.00020770137032592652,-0.091458706772489684,0.10236401111021642,9.6342529901193075
1786618140.6829369,1786618140.6819859,vesc,0.00019911170053170147,0.00019911170053170147,nan,nan,0.01,1,0,1,0,0,1786618140.6819859,nan,0.00090432992344739716,-0.0024168883891660629,0.00019911170053170147,-0.1619560398891764,0.069145082212742182,9.5183681875893171
1786618140.7073503,1786618140.7057192,vesc,0.0012450379525107266,0.0012450379525107266,nan,nan,0.01,1,0,1,0,0,1786618140.7057192,nan,-0.0012385462372793334,-0.00028916311832836143,0.0012450379525107266,-0.073254907545166503,0.078194452814166482,9.7158380241647819
1786618140.7257864,1786618140.7254853,vesc,-0.00089392630025346203,-0.00089392630025346203,nan,nan,0.01,1,0,1,0,0,1786618140.7254853,nan,-0.0012135582961138242,-0.003479219186809468,-0.00089392630025346203,-0.16212458588756817,0.097846598284283104,9.5328143191982235
1786618140.7461135,1786618140.745626,vesc,-0.00086034914442379708,-0.00086034914442379708,nan,nan,0.01,1,0,1,0,0,1786618140.745626,nan,0.00091682389403015165,-0.00028350494130924384,-0.00086034914442379708,-0.12014078085115454,0.07363764437108955,9.6290489679660141
1786618140.7678475,1786618140.7669289,vesc,-0.0029907236623751793,-0.0029907236623751793,nan,nan,0.01,1,0,1,0,0,1786618140.7669289,nan,0.00094181131504701037,-0.00027777914496557348,-0.0029907236623751793,-0.12053402439315253,0.059177479444016967,9.6625383123264328
1786618140.7876997,1786618140.7859464,vesc,0.0012671622152814249,0.0012671622152814249,nan,nan,0.01,1,0,1,0,0,1786618140.7859464,nan,0.00089183595286464255,-0.0013544910124954062,0.0012671622152814249,-0.12972020157414743,0.083217978721567221,9.6289624291706559
1786618140.8061912,1786618140.8053811,vesc,-0.00087961024894833511,-0.00087961024894833511,nan,nan,0.01,1,0,1,0,0,1786618140.8053811,nan,-0.0012135582961138242,0.0018470832277002929,-0.00087961024894833511,-0.091683422588645591,0.10710254006001563,9.6534248416206765
1786618140.8318796,1786618140.8288898,vesc,0.00015486317499030486,0.00015486317499030486,nan,nan,0.01,1,0,1,0,0,1786618140.8288898,nan,-0.0033564344568405551,-0.00028623364112927423,0.00015486317499030486,-0.15761576115999176,0.11215214089583192,9.5568569015464391
1786618140.8429129,1786618140.84252,vesc,-0.00086997969668606593,-0.00086997969668606593,nan,nan,0.01,1,0,1,0,0,1786618140.84252,nan,-0.00014836720104183631,0.00078178966334417502,-0.00086997969668606593,-0.11033664431200574,0.068898841333044913,9.609990552453155
1786618140.8663151,1786618140.8653476,vesc,0.00021733189007890484,0.00021733189007890484,nan,nan,0.01,1,0,1,0,0,1786618140.8653476,nan,0.0019695210185193849,-0.00028640112899470504,0.00021733189007890484,-0.11112314966855141,0.073508603625139557,9.6770581188557117
1786618140.8854721,1786618140.8852634,vesc,0.0012296809537189744,0.0012296809537189744,nan,nan,0.01,1,0,1,0,0,1786618140.8852634,nan,-0.0023037368122026708,-0.0013543901036572276,0.0012296809537189744,-0.14279720757946546,0.11225466817217367,9.5187084955548471
1786618140.905659,1786618140.9053221,vesc,-0.00087856930146170981,-0.00087856930146170981,nan,nan,0.01,1,0,1,0,0,1786618140.9053221,nan,-0.00014836720104183631,-0.002413992201480602,-0.00087856930146170981,-0.10131901312940261,0.016079551371291245,9.6578582007180103
1786618140.9258945,1786618140.9255784,vesc,0.0023255820152224267,0.0023255820152224267,nan,nan,0.01,1,0,1,0,0,1786618140.9255784,nan,-0.00018584859264144957,0.00077320096882866945,0.0023255820152224267,-0.13406048030333206,0.11206127150619594,9.590666673338319
1786618140.9415193,1786618140.9411328,vesc,0.00016735691800802484,0.00016735691800802484,nan,nan,0.01,1,0,1,0,0,1786618140.9411328,nan,-0.0022912428416199163,-0.00028626693064290023,0.00016735691800802484,-0.12498666103041511,0.092785010655866529,9.633834329460683
1786618140.9659815,1786618140.96558,vesc,0.0012518052164896727,0.0012518052164896727,nan,nan,0.01,1,0,1,0,0,1786618140.96558,nan,-0.00017335514220734541,-0.002419717997824272,0.0012518052164896727,-0.14363990102632496,0.064161353918578357,9.5904245985999523
1786618140.982959,1786618140.9814768,vesc,-0.00088819985372397866,-0.00088819985372397866,nan,nan,0.01,1,0,1,0,0,1786618140.9814768,nan,-0.0012135582961138242,-0.001348698637124484,-0.00088819985372397866,-0.15744725170669938,0.11698079006072959,9.5425008170624324
1786618141.0062034,1786618141.0059376,vesc,0.0012603948212653164,0.0012603948212653164,nan,nan,0.01,1,0,1,0,0,1786618141.0059376,nan,-0.00017335514220734541,0.00077606386700050461,0.0012603948212653164,-0.068521376137709034,0.054231282966927807,9.7206198773299093
1786618141.0256829,1786618141.0254185,vesc,0.00019520762730820652,0.00019520762730820652,nan,nan,0.01,1,0,1,0,0,1786618141.0254185,nan,-0.00016086117162459086,0.00077892676517233987,0.00019520762730820652,-0.13856928675835878,0.11212579187917093,9.56666151317188
1786618141.0459919,1786618141.0454443,vesc,-0.00085748598617763668,-0.00085748598617763668,nan,nan,0.01,1,0,1,0,0,1786618141.0454443,nan,0.00091682389403015165,0.00078175533353324808,-0.00085748598617763668,-0.10605253540058523,0.078362852632160696,9.6531792585527683
1786618141.06146,1786618141.0611317,vesc,0.00018948118077872315,0.00018948118077872315,nan,nan,0.01,1,0,1,0,0,1786618141.0611317,nan,-0.00016086117162459086,-0.001351594824809945,0.00018948118077872315,-0.12042166648507457,0.068783285728770238,9.6529851309848027
1786618141.0829093,1786618141.081326,vesc,-0.00087961024894833511,-0.00087961024894833511,nan,nan,0.01,1,0,1,0,0,1786618141.081326,nan,-0.0012135582961138242,0.0018470832277002929,-0.00087961024894833511,-0.091851950314487674,0.087903827910594146,9.6677423344797262
1786618141.1056218,1786618141.1053505,vesc,0.00017022014127276652,0.00017022014127276652,nan,nan,0.01,1,0,1,0,0,1786618141.1053505,nan,-0.0022912438819172173,0.00077899334419959175,0.00017022014127276652,-0.13344250267262847,0.083462757797288845,9.5379025664766459
1786618141.1217682,1786618141.1213353,vesc,-0.00089496711770292476,-0.00089496711770292476,nan,nan,0.01,1,0,1,0,0,1786618141.1213353,nan,-0.0022787499113344628,0.00078185624237142701,-0.00089496711770292476,-0.10633343930705497,0.068718454722450417,9.6771013882533907
1786618141.1461959,1786618141.1452267,vesc,0.00021446866681416318,0.00021446866681416318,nan,nan,0.01,1,0,1,0,0,1786618141.1452267,nan,0.0019695210185193849,-0.0013516614038371971,0.00021446866681416318,-0.13896253030035677,0.059345440720818488,9.6000479465324133
1786618141.1657572,1786618141.1652365,vesc,0.00019234440404346486,0.00019234440404346486,nan,nan,0.01,1,0,1,0,0,1786618141.1652365,nan,-0.00016086117162459086,-0.00028633454996745305,0.00019234440404346486,-0.12431251358194739,0.10251954705322497,9.5763842637746848
1786618141.1856904,1786618141.1853678,vesc,-0.00089783040598624762,-0.00089783040598624762,nan,nan,0.01,1,0,1,0,0,1786618141.1853678,nan,-0.0022787488710371622,-0.00028340403247106507,-0.00089783040598624762,-0.10999957058777188,0.09771620536965564,9.5813286695419038
1786618141.205883,1786618141.2054048,vesc,-0.0030003542146374487,-0.0030003542146374487,nan,nan,0.01,1,0,1,0,0,1786618141.2054048,nan,-0.00012337978002497762,0.00078751545968784543,-0.0030003542146374487,-0.14386459856993117,0.044949777894171206,9.609532130726393
1786618141.2254965,1786618141.2252333,vesc,-0.0019380303089636616,-0.0019380303089636616,nan,nan,0.01,1,0,1,0,0,1786618141.2252333,nan,-0.00013587375060773214,-0.00028060875362378264,-0.0019380303089636616,-0.091627234498331767,0.087955319955636213,9.6485833468533428
1786618141.2459102,1786618141.2453973,vesc,-0.0019380303089636616,-0.0019380303089636616,nan,nan,0.01,1,0,1,0,0,1786618141.2453973,nan,-0.00013587375060773214,-0.00028060875362378264,-0.0019380303089636616,-0.12487430312233716,0.059280609714498667,9.6241642038010013
1786618141.2656834,1786618141.2653716,vesc,-0.00088819985372397866,-0.00088819985372397866,nan,nan,0.01,1,0,1,0,0,1786618141.2653716,nan,-0.0012135582961138242,-0.001348698637124484,-0.00088819985372397866,-0.1433028273020911,0.083398694238056237,9.5617381573819102
1786618141.2856004,1786618141.2852178,vesc,-0.00086034914442379708,-0.00086034914442379708,nan,nan,0.01,1,0,1,0,0,1786618141.2852178,nan,0.00091682389403015165,-0.00028350494130924384,-0.00086034914442379708,-0.10193699076010621,0.03030802036822422,9.7105825465115458
1786618141.3058484,1786618141.3052807,vesc,-0.0019283997567013926,-0.0019283997567013926,nan,nan,0.01,1,0,1,0,0,1786618141.3052807,nan,0.00092931734446425576,-0.0013459023179799006,-0.0019283997567013926,-0.15271370202669221,0.12175778272763793,9.5473598534774737
1786618141.3217938,1786618141.3215222,vesc,0.00019520762730820652,0.00019520762730820652,nan,nan,0.01,1,0,1,0,0,1786618141.3215222,nan,-0.00016086117162459086,0.00077892676517233987,0.00019520762730820652,-0.12966401348383361,0.044910711182922114,9.6240694789033796
1786618141.3457296,1786618141.3454413,vesc,0.0012450379525107266,0.0012450379525107266,nan,nan,0.01,1,0,1,0,0,1786618141.3454413,nan,-0.0012385462372793334,-0.00028916311832836143,0.0012450379525107266,-0.1106737180362396,0.078401626982614658,9.6387541769211111
1786618141.3659124,1786618141.3654284,vesc,-0.0019476606011516052,-0.0019476606011516052,nan,nan,0.01,1,0,1,0,0,1786618141.3654284,nan,-0.0012010648456797202,0.00078468585102963622,-0.0019476606011516052,-0.10109429731324671,0.097561418601184613,9.6389178989663833
1786618141.3860586,1786618141.3856997,vesc,-0.00090173438168187074,-0.00090173438168187074,nan,nan,0.01,1,0,1,0,0,1786618141.3856997,nan,-0.0033439415265551012,0.0029124111218673376,-0.00090173438168187074,-0.087399313677225088,0.068666341410718701,9.696484908970433
1786618141.4056726,1786618141.4053504,vesc,0.0012603948212653164,0.0012603948212653164,nan,nan,0.01,1,0,1,0,0,1786618141.4053504,nan,-0.00017335514220734541,0.00077606386700050461,0.0012603948212653164,-0.16685812643130049,0.11222968959673985,9.5280067382831248
1786618141.4258616,1786618141.4254506,vesc,0.00021160544354942147,0.00021160544354942147,nan,nan,0.01,1,0,1,0,0,1786618141.4254506,nan,0.0019695210185193849,-0.0024169227189769897,0.00021160544354942147,-0.11134786548470732,0.044717022156149255,9.696139923232181
1786618141.4455664,1786618141.4453127,vesc,0.0012671622152814249,0.0012671622152814249,nan,nan,0.01,1,0,1,0,0,1786618141.4453127,nan,0.00089183595286464255,-0.0013544910124954062,0.0012671622152814249,-0.13394812239525411,0.073766867842536499,9.5809836838036517
1786618141.4655969,1786618141.4653084,vesc,0.0012642990570352647,0.0012642990570352647,nan,nan,0.01,1,0,1,0,0,1786618141.4653084,nan,0.00089183595286464255,-0.0024197512873378982,0.0012642990570352647,-0.12002842294307658,0.1024035346352079,9.6195472421243267
1786618141.4861217,1786618141.4857035,vesc,0.00018271388429048652,0.00018271388429048652,nan,nan,0.01,1,0,1,0,0,1786618141.4857035,nan,-0.0012260522666965789,0.00077896005468596581,0.00018271388429048652,-0.14814870748135167,0.021115685337981915,9.5663048330018228
1786618141.5056036,1786618141.5053022,vesc,-0.001950524019472091,-0.001950524019472091,nan,nan,0.01,1,0,1,0,0,1786618141.5053022,nan,-0.0012010648456797202,-0.00028057442381285586,-0.001950524019472091,-0.11563197439612782,0.12147335221907696,9.6531827668823098
1786618141.5255754,1786618141.5252988,vesc,-0.0019312629149475528,-0.0019312629149475528,nan,nan,0.01,1,0,1,0,0,1786618141.5252988,nan,0.00092931734446425576,-0.0024111625928223929,-0.0019312629149475528,-0.15716632952767995,0.073934975299735584,9.5184371847369675
1786618141.5490096,1786618141.5455458,vesc,-0.00088533669547781837,-0.00088533669547781837,nan,nan,0.01,1,0,1,0,0,1786618141.5455458,nan,-0.0012135582961138242,-0.00028343732198469102,-0.00088533669547781837,-0.11551959821550017,0.064018864576052437,9.6434483218476998
1786618141.5660293,1786618141.5658207,vesc,0.00020483814706118484,0.00020483814706118484,nan,nan,0.01,1,0,1,0,0,1786618141.5658207,nan,0.00090432992344739716,-0.00028636783948107899,0.00020483814706118484,-0.11585667193973403,0.06394160823593964,9.6721873880088651
1786618141.585681,1786618141.5853629,vesc,-0.0019351668906431761,-0.0019351668906431761,nan,nan,0.01,1,0,1,0,0,1786618141.5853629,nan,-0.00013587375060773214,0.00078465256151601006,-0.0019351668906431761,-0.11563195612357813,0.035252974311934082,9.6529512171325678
1786618141.6055872,1786618141.6052778,vesc,0.0023073619882216763,0.0023073619882216763,nan,nan,0.01,1,0,1,0,0,1786618141.6052778,nan,-0.0012510396877134374,-0.0013572873316399895,0.0023073619882216763,-0.10064486568093489,0.12640452866031637,9.6006771069635306
1786618141.6256149,1786618141.6252921,vesc,0.00017698743776100315,0.00017698743776100315,nan,nan,0.01,1,0,1,0,0,1786618141.6252921,nan,-0.0012260522666965789,-0.001351561535296319,0.00017698743776100315,-0.13400429221301824,0.045013841453403813,9.5856965398211287
1786618141.6457958,1786618141.6452916,vesc,-0.00087284285493222644,-0.00087284285493222644,nan,nan,0.01,1,0,1,0,0,1786618141.6452916,nan,-0.00014836720104183631,-0.00028347165179561784,-0.00087284285493222644,-0.12972020157414743,0.064057894742202137,9.6289109736707132
1786618141.6658535,1786618141.6654725,vesc,0.0012978762128649296,0.0012978762128649296,nan,nan,0.01,1,0,1,0,0,1786618141.6654725,nan,0.0030222186631572692,0.00077596295816232579,0.0012978762128649296,-0.11568814421389195,0.078350281117970155,9.6578570312748298
1786618141.6859159,1786618141.6855531,vesc,-0.00090069356423240813,-0.00090069356423240813,nan,nan,0.01,1,0,1,0,0,1786618141.6855531,nan,-0.0022787488710371622,-0.001348664307313557,-0.00090069356423240813,-0.16674575025067284,0.093095351639895796,9.5183763736915807
1786618141.7060513,1786618141.7056401,vesc,-0.001940893467209822,-0.001940893467209822,nan,nan,0.01,1,0,1,0,0,1786618141.7056401,nan,-0.00013587375060773214,-0.0013458690284662747,-0.001940893467209822,-0.087792575491772773,0.030256053236890068,9.7299099339559234
1786618141.7258859,1786618141.7252502,vesc,0.00018661795751398149,0.00018661795751398149,nan,nan,0.01,1,0,1,0,0,1786618141.7252502,nan,-0.00016086117162459086,-0.0024168550996524372,0.00018661795751398149,-0.16240547152148821,0.13131238932814426,9.556852223773717
1786618141.7458112,1786618141.7454817,vesc,0.00017698743776100315,0.00017698743776100315,nan,nan,0.01,1,0,1,0,0,1786618141.7454817,nan,-0.0012260522666965789,-0.001351561535296319,0.00017698743776100315,-0.13000110548061716,0.063993538822174401,9.6528600005644876
1786618141.7657185,1786618141.7653987,vesc,0.0012450379525107266,0.0012450379525107266,nan,nan,0.01,1,0,1,0,0,1786618141.7653987,nan,-0.0012385462372793334,-0.00028916311832836143,0.0012450379525107266,-0.15378112042598246,0.073612976429000554,9.6382349441489623
1786618141.785661,1786618141.7853775,vesc,-0.00087284285493222644,-0.00087284285493222644,nan,nan,0.01,1,0,1,0,0,1786618141.7853775,nan,-0.00014836720104183631,-0.00028347165179561784,-0.00087284285493222644,-0.14324663921177727,0.088201597380432872,9.5569621514326855
1786618141.8056474,1786618141.8053045,vesc,0.00017985066102574486,0.00017985066102574486,nan,nan,0.01,1,0,1,0,0,1786618141.8053045,nan,-0.0012260522666965789,-0.00028630022015652622,0.00017985066102574486,-0.082834328268159396,0.063824700462987494,9.7156871659944954
1786618141.825628,1786618141.8253572,vesc,0.00018948118077872315,0.00018948118077872315,nan,nan,0.01,1,0,1,0,0,1786618141.8253572,nan,-0.00016086117162459086,-0.001351594824809945,0.00018948118077872315,-0.1905257560597633,0.093134747257039407,9.5037255895260841
1786618141.8456893,1786618141.8454013,vesc,0.00021446866681416318,0.00021446866681416318,nan,nan,0.01,1,0,1,0,0,1786618141.8454013,nan,0.0019695210185193849,-0.0013516614038371971,0.00021446866681416318,-0.11089843385239551,0.054400048235915932,9.6578488451725661
1786618141.8655362,1786618141.8652928,vesc,0.0012421747942645664,0.0012421747942645664,nan,nan,0.01,1,0,1,0,0,1786618141.8652928,nan,-0.0012385462372793334,-0.0013544244334681541,0.0012421747942645664,-0.13000110548061716,0.068783578089565367,9.6528728644394732
1786618141.8858569,1786618141.8854897,vesc,0.0012671622152814249,0.0012671622152814249,nan,nan,0.01,1,0,1,0,0,1786618141.8854897,nan,0.00089183595286464255,-0.0013544910124954062,0.0012671622152814249,-0.11980370712692068,0.09287498469056743,9.600362526747972
1786618141.9055936,1786618141.9053304,vesc,0.00017412421449626149,0.00017412421449626149,nan,nan,0.01,1,0,1,0,0,1786618141.9053304,nan,-0.0012260522666965789,-0.0024168218101388111,0.00017412421449626149,-0.14859813911366349,0.049752827216945406,9.604698822061323
1786618141.9256175,1786618141.9253645,vesc,0.00020770137032592652,0.00020770137032592652,nan,nan,0.01,1,0,1,0,0,1786618141.9253645,nan,0.00090432992344739716,0.00077889243536141293,0.00020770137032592652,-0.11596902984781199,0.073495885930551452,9.6817920248504379
1786618141.9456582,1786618141.9453673,vesc,0.00019520762730820652,0.00019520762730820652,nan,nan,0.01,1,0,1,0,0,1786618141.9453673,nan,-0.00016086117162459086,0.00077892676517233987,0.00019520762730820652,-0.1196351611285289,0.049803405634502695,9.5858778035141086
1786618141.9661222,1786618141.9653449,vesc,-0.00088819985372397866,-0.00088819985372397866,nan,nan,0.01,1,0,1,0,0,1786618141.9653449,nan,-0.0012135582961138242,-0.001348698637124484,-0.00088819985372397866,-0.14369607084408909,0.064148453498493296,9.5952146378673433
1786618141.9859719,1786618141.9856362,vesc,0.00019807085057294823,0.00019807085057294823,nan,nan,0.01,1,0,1,0,0,1786618141.9856362,nan,-0.00016086117162459086,0.0018441870400148319,0.00019807085057294823,-0.12431251358194739,0.097729526058383698,9.5763713998996991
1786618142.0055993,1786618142.0052376,vesc,0.0012450379525107266,0.0012450379525107266,nan,nan,0.01,1,0,1,0,0,1786618142.0052376,nan,-0.0012385462372793334,-0.00028916311832836143,0.0012450379525107266,-0.12994491739030334,0.016106192748747361,9.6479413225472399
1786618142.0256739,1786618142.0253711,vesc,-0.00086425325015658267,-0.00086425325015658267,nan,nan,0.01,1,0,1,0,0,1786618142.0253711,nan,-0.00014836720104183631,0.002912310213029159,-0.00086425325015658267,-0.11501399676542423,0.11682494348437622,9.6004829793955651
1786618142.0456944,1786618142.0453873,vesc,0.00019234440404346486,0.00019234440404346486,nan,nan,0.01,1,0,1,0,0,1786618142.0453873,nan,-0.00016086117162459086,-0.00028633454996745305,0.00019234440404346486,-0.12966401348383361,0.068860797884578773,9.6241337982783079
1786618142.0657947,1786618142.0654383,vesc,-0.00087284285493222644,-0.00087284285493222644,nan,nan,0.01,1,0,1,0,0,1786618142.0654383,nan,-0.00014836720104183631,-0.00028347165179561784,-0.00087284285493222644,-0.12481813330457303,0.064083512856875302,9.6193881978517766
1786618142.085634,1786618142.0853214,vesc,-0.00087570614321554941,-0.00087570614321554941,nan,nan,0.01,1,0,1,0,0,1786618142.0853214,nan,-0.00014836720104183631,-0.0013487319266381099,-0.00087570614321554941,-0.072749296958815712,0.054360214077579627,9.6726668597128764
1786618142.1057501,1786618142.1053624,vesc,0.00019520762730820652,0.00019520762730820652,nan,nan,0.01,1,0,1,0,0,1786618142.1053624,nan,-0.00016086117162459086,0.00077892676517233987,0.00019520762730820652,-0.16173132407302049,0.12667686274097889,9.4993635664627618
1786618142.1255648,1786618142.125313,vesc,0.00022019511334364655,0.00022019511334364655,nan,nan,0.01,1,0,1,0,0,1786618142.125313,nan,0.0019695210185193849,0.00077885914584778699,0.00022019511334364655,-0.10165608685363647,0.059112502257299582,9.6867118723108661
1786618142.145726,1786618142.1453776,vesc,-0.0019255363383809071,-0.0019255363383809071,nan,nan,0.01,1,0,1,0,0,1786618142.1453776,nan,0.00092931734446425576,-0.00028064204313740869,-0.0019255363383809071,-0.1531069638412399,0.083347494553809298,9.5807848784629641
1786618142.1656976,1786618142.1654129,vesc,-0.0019283997567013926,-0.0019283997567013926,nan,nan,0.01,1,0,1,0,0,1786618142.1654129,nan,0.00092931734446425576,-0.0013459023179799006,-0.0019283997567013926,-0.12002842294307658,0.083243450655842821,9.619495786624384
1786618142.1856964,1786618142.1853979,vesc,-0.00086711640840274296,-0.00086711640840274296,nan,nan,0.01,1,0,1,0,0,1786618142.1853979,nan,-0.00014836720104183631,0.0018470499381866669,-0.00086711640840274296,-0.10650196703289705,0.11179001550596546,9.6915872809304346
1786618142.2057841,1786618142.2053022,vesc,0.00018271388429048652,0.00018271388429048652,nan,nan,0.01,1,0,1,0,0,1786618142.2053022,nan,-0.0012260522666965789,0.00077896005468596581,0.00018271388429048652,-0.15705398989215169,0.08833078430678043,9.5088956978271426
1786618142.2257695,1786618142.2253959,vesc,-0.00084499214563204465,-0.00084499214563204465,nan,nan,0.01,1,0,1,0,0,1786618142.2253959,nan,0.0019820149891021394,0.00078172204401962214,-0.00084499214563204465,-0.063619307868134634,0.073416985060966056,9.7111485570109153
1786618142.2457144,1786618142.2453711,vesc,0.00020483814706118484,0.00020483814706118484,nan,nan,0.01,1,0,1,0,0,1786618142.2453711,nan,0.00090432992344739716,-0.00028636783948107899,0.00020483814706118484,-0.15755959134222763,0.05947477382756361,9.5519265290973863
1786618142.2657547,1786618142.2654159,vesc,0.00019911170053170147,0.00019911170053170147,nan,nan,0.01,1,0,1,0,0,1786618142.2654159,nan,0.00090432992344739716,-0.0024168883891660629,0.00019911170053170147,-0.11529488239934427,0.073650398610777046,9.6243162314144683
1786618142.2857873,1786618142.2854488,vesc,0.0023102251464678365,0.0023102251464678365,nan,nan,0.01,1,0,1,0,0,1786618142.2854488,nan,-0.0012510396877134374,-0.00029202601650019658,0.0023102251464678365,-0.12019695066891867,0.040094615259665289,9.6337489601085053
1786618142.3057902,1786618142.3053868,vesc,-0.0019323037323970157,-0.0019323037323970157,nan,nan,0.01,1,0,1,0,0,1786618142.3053868,nan,-0.00013587375060773214,0.001849912836358502,-0.0019323037323970157,-0.12972020157414743,0.1023780992460317,9.6290138846705986
1786618142.3260214,1786618142.3254778,vesc,-0.00085462269789431371,-0.00085462269789431371,nan,nan,0.01,1,0,1,0,0,1786618142.3254778,nan,0.00091682389403015165,0.001847016648673041,-0.00085462269789431371,-0.13873783275675056,0.068976974755543097,9.5809146866560013
1786618142.3461607,1786618142.3457675,vesc,-0.0019351668906431761,-0.0019351668906431761,nan,nan,0.01,1,0,1,0,0,1786618142.3457675,nan,-0.00013587375060773214,0.00078465256151601006,-0.0019351668906431761,-0.10616489330866319,0.078337124882189357,9.6627581676443697
1786618142.3657837,1786618142.365483,vesc,0.00021160544354942147,0.00021160544354942147,nan,nan,0.01,1,0,1,0,0,1786618142.365483,nan,0.0019695210185193849,-0.0024169227189769897,0.00021160544354942147,-0.11078607594431755,0.083165901954934895,9.6483459498876982
1786618142.3860502,1786618142.3854115,vesc,0.0012421747942645664,0.0012421747942645664,nan,nan,0.01,1,0,1,0,0,1786618142.3854115,nan,-0.0012385462372793334,-0.0013544244334681541,0.0012421747942645664,-0.091851950314487674,0.05916370194154652,9.6676651512298122
1786618142.4058714,1786618142.4055727,vesc,0.00019520762730820652,0.00019520762730820652,nan,nan,0.01,1,0,1,0,0,1786618142.4055727,nan,-0.00016086117162459086,0.00077892676517233987,0.00019520762730820652,-0.12893369621760176,0.13608848664011752,9.5620480598247468
1786618142.4262784,1786618142.4253531,vesc,0.0012642990570352647,0.0012642990570352647,nan,nan,0.01,1,0,1,0,0,1786618142.4253531,nan,0.00089183595286464255,-0.0024197512873378982,0.0012642990570352647,-0.12092728620770021,0.011187149280505793,9.6959376095619518
1786618142.4458923,1786618142.4454687,vesc,-0.00086711640840274296,-0.00086711640840274296,nan,nan,0.01,1,0,1,0,0,1786618142.4454687,nan,-0.00014836720104183631,0.0018470499381866669,-0.00086711640840274296,-0.1294392976676777,0.083282371186694348,9.6050145717200621
1786618142.4657655,1786618142.4654703,vesc,0.00020197492379644315,0.00020197492379644315,nan,nan,0.01,1,0,1,0,0,1786618142.4654703,nan,0.00090432992344739716,-0.0013516281143235711,0.00020197492379644315,-0.10622108139897701,0.083114263729495264,9.6675610707867463
1786618142.4857845,1786618142.4854221,vesc,0.00021446866681416318,0.00021446866681416318,nan,nan,0.01,1,0,1,0,0,1786618142.4854221,nan,0.0019695210185193849,-0.0013516614038371971,0.00021446866681416318,-0.16240547152148821,0.08820218210202313,9.556736448898846
1786618142.5056474,1786618142.5053303,vesc,-0.0009035568525157311,-0.0009035568525157311,nan,nan,0.01,1,0,1,0,0,1786618142.5053303,nan,-0.0022787488710371622,-0.0024139256224533496,-0.0009035568525157311,-0.087792575491772773,0.073366260463011201,9.7300257088307944
1786618142.5258183,1786618142.5254481,vesc,0.00020483814706118484,0.00020483814706118484,nan,nan,0.01,1,0,1,0,0,1786618142.5254481,nan,0.00090432992344739716,-0.00028636783948107899,0.00020483814706118484,-0.17654988678982164,0.12657429891953775,9.5375131418975343
1786618142.5459962,1786618142.5454142,vesc,-0.00088533669547781837,-0.00088533669547781837,nan,nan,0.01,1,0,1,0,0,1786618142.5454142,nan,-0.0012135582961138242,-0.00028343732198469102,-0.00088533669547781837,-0.10588400767474315,0.030501270853804385,9.6386816714439192
1786618142.5657766,1786618142.5654113,vesc,0.0012825190840360147,0.0012825190840360147,nan,nan,0.01,1,0,1,0,0,1786618142.5654113,nan,0.0019570270479366309,-0.00028926402716654019,0.0012825190840360147,-0.1345661000259577,0.068835216315004999,9.6336577435404251
1786618142.585844,1786618142.5854676,vesc,0.00018661795751398149,0.00018661795751398149,nan,nan,0.01,1,0,1,0,0,1786618142.5854676,nan,-0.00016086117162459086,-0.0024168550996524372,0.00018661795751398149,-0.13907488820843472,0.044949631713773641,9.6095882639990577
1786618142.6057453,1786618142.6053956,vesc,0.0012354074002484579,0.0012354074002484579,nan,nan,0.01,1,0,1,0,0,1786618142.6053956,nan,-0.0023037378524999718,0.0007761304460277566,0.0012354074002484579,-0.091908138404801498,0.087890964035608476,9.6725323737471172
1786618142.6257315,1786618142.6254287,vesc,0.00018948118077872315,0.00018948118077872315,nan,nan,0.01,1,0,1,0,0,1786618142.6254287,nan,-0.00016086117162459086,-0.001351594824809945,0.00018948118077872315,-0.1524889862105363,0.088279146081340798,9.5281108187261907
1786618142.6456683,1786618142.6454175,vesc,0.00017412421449626149,0.00017412421449626149,nan,nan,0.01,1,0,1,0,0,1786618142.6454175,nan,-0.0012260522666965789,-0.0024168218101388111,0.00017412421449626149,-0.10154372894555852,0.039978182573005228,9.6770803382761414
1786618142.6656425,1786618142.6653471,vesc,0.0023044988299755161,0.0023044988299755161,nan,nan,0.01,1,0,1,0,0,1786618142.6653471,nan,-0.0012510396877134374,-0.0024225476064824816,0.0023044988299755161,-0.12481813330457303,0.073663554846557844,9.6194139256017479
1786618142.6858788,1786618142.6854801,vesc,0.00020197492379644315,0.00020197492379644315,nan,nan,0.01,1,0,1,0,0,1786618142.6854801,nan,0.00090432992344739716,-0.0013516281143235711,0.00020197492379644315,-0.14786782184743164,0.09303037445317841,9.5425487642328335
1786618142.7057388,1786618142.705411,vesc,0.0012575316630191562,0.0012575316630191562,nan,nan,0.01,1,0,1,0,0,1786618142.705411,nan,-0.00017335514220734541,-0.0002891974481392882,0.0012575316630191562,-0.13450991193564388,0.035317914953552076,9.6287776571481345
1786618142.7256937,1786618142.725399,vesc,0.0012546685047729958,0.0012546685047729958,nan,nan,0.01,1,0,1,0,0,1786618142.725399,nan,-0.00017335514220734541,-0.0013544577229817802,0.0012546685047729958,-0.11033664431200574,0.11679905128145762,9.6101191912030117
1786618142.7458727,1786618142.7455063,vesc,0.0012296809537189744,0.0012296809537189744,nan,nan,0.01,1,0,1,0,0,1786618142.7455063,nan,-0.0023037368122026708,-0.0013543901036572276,0.0012296809537189744,-0.12972020157414743,0.068847934009593104,9.6289238375456989
1786618142.7656918,1786618142.7653267,vesc,-0.00086997969668606593,-0.00086997969668606593,nan,nan,0.01,1,0,1,0,0,1786618142.7653267,nan,-0.00014836720104183631,0.00078178966334417502,-0.00086997969668606593,-0.13941198020521828,0.078402540610099436,9.6384173772851227
1786618142.7856767,1786618142.7853553,vesc,-0.001944797442905445,-0.001944797442905445,nan,nan,0.01,1,0,1,0,0,1786618142.7853553,nan,-0.0012010648456797202,0.0018499461258721284,-0.001944797442905445,-0.12408779776579149,0.064250889412086565,9.5571223651484161
1786618142.8056188,1786618142.8052793,vesc,0.0012642990570352647,0.0012642990570352647,nan,nan,0.01,1,0,1,0,0,1786618142.8052793,nan,0.00089183595286464255,-0.0024197512873378982,0.0012642990570352647,-0.087511671585303041,0.025530406434626229,9.7059492126303439
1786618142.8257415,1786618142.8253486,vesc,0.0012479011107568872,0.0012479011107568872,nan,nan,0.01,1,0,1,0,0,1786618142.8253486,nan,-0.0012385462372793334,0.00077609715651413066,0.0012479011107568872,-0.14809253766358754,0.11692900565489239,9.5617720712341452
1786618142.8457716,1786618142.8454854,vesc,-0.0019283997567013926,-0.0019283997567013926,nan,nan,0.01,1,0,1,0,0,1786618142.8454854,nan,0.00092931734446425576,-0.0013459023179799006,-0.0019283997567013926,-0.11580050212196991,0.044794388131560225,9.6673458932415315
1786618142.8655691,1786618142.8653111,vesc,0.0012575316630191562,0.0012575316630191562,nan,nan,0.01,1,0,1,0,0,1786618142.8653111,nan,-0.00017335514220734541,-0.0002891974481392882,0.0012575316630191562,-0.13490317375019156,0.08312804123196571,9.6624342318833669
1786618142.8854814,1786618142.8852828,vesc,-0.00088819985372397866,-0.00088819985372397866,nan,nan,0.01,1,0,1,0,0,1786618142.8852828,nan,-0.0012135582961138242,-0.001348698637124484,-0.00088819985372397866,-0.1106737180362396,0.083191629704906234,9.6387670407960968
1786618142.9055359,1786618142.9053037,vesc,-0.00087284285493222644,-0.00087284285493222644,nan,nan,0.01,1,0,1,0,0,1786618142.9053037,nan,-0.00014836720104183631,-0.00028347165179561784,-0.00087284285493222644,-0.15739104534383586,0.10262359095119145,9.5376733556132649
1786618142.9255786,1786618142.9253292,vesc,0.00016735691800802484,0.00016735691800802484,nan,nan,0.01,1,0,1,0,0,1786618142.9253292,nan,-0.0022912428416199163,-0.00028626693064290023,0.00016735691800802484,-0.077707535046154241,0.059111734810212369,9.6869925386741897
1786618142.9455945,1786618142.9453614,vesc,-0.00087570614321554941,-0.00087570614321554941,nan,nan,0.01,1,0,1,0,0,1786618142.9453614,nan,-0.00014836720104183631,-0.0013487319266381099,-0.00087570614321554941,-0.14814870748135167,0.092966018533150674,9.5664977911266078
1786618142.9656675,1786618142.9653094,vesc,0.00019234440404346486,0.00019234440404346486,nan,nan,0.01,1,0,1,0,0,1786618142.9653094,nan,-0.00016086117162459086,-0.00028633454996745305,0.00019234440404346486,-0.10131901312940261,0.059189758597412379,9.6579739755928813
1786618142.9857461,1786618142.9853685,vesc,-0.00089783040598624762,-0.00089783040598624762,nan,nan,0.01,1,0,1,0,0,1786618142.9853685,nan,-0.0022787488710371622,-0.00028340403247106507,-0.00089783040598624762,-0.10599636558282111,0.083165755774537331,9.648402083160363
1786618143.0057716,1786618143.0053122,vesc,0.0023016354116550306,0.0023016354116550306,nan,nan,0.01,1,0,1,0,0,1786618143.0053122,nan,-0.0012510396877134374,-0.0034878078813249738,0.0023016354116550306,-0.15761576115999176,0.064251949219968907,9.5567282627965824
1786618143.0260046,1786618143.0256093,vesc,-0.00089783040598624762,-0.00089783040598624762,nan,nan,0.01,1,0,1,0,0,1786618143.0256093,nan,-0.0022787488710371622,-0.00028340403247106507,-0.00089783040598624762,-0.077707544182429089,0.09264190004665096,9.6870825857990894
1786618143.0457218,1786618143.0453937,vesc,0.0012671622152814249,0.0012671622152814249,nan,nan,0.01,1,0,1,0,0,1786618143.0453937,nan,0.00089183595286464255,-0.0013544910124954062,0.0012671622152814249,-0.15237662830245835,0.088304873831312136,9.5185319096345893
1786618143.0660672,1786618143.0656745,vesc,-0.00090069356423240813,-0.00090069356423240813,nan,nan,0.01,1,0,1,0,0,1786618143.0656745,nan,-0.0022787488710371622,-0.001348664307313557,-0.00090069356423240813,-0.1057716497666652,0.073637205829896857,9.6292173677840083
1786618143.0856986,1786618143.0854316,vesc,-0.0019312629149475528,-0.0019312629149475528,nan,nan,0.01,1,0,1,0,0,1786618143.0854316,nan,0.00092931734446425576,-0.0024111625928223929,-0.0019312629149475528,-0.12554845057080488,0.059126097034273073,9.6816411666801514
1786618143.1056776,1786618143.1053042,vesc,-0.00087284285493222644,-0.00087284285493222644,nan,nan,0.01,1,0,1,0,0,1786618143.1053042,nan,-0.00014836720104183631,-0.00028347165179561784,-0.00087284285493222644,-0.14279720757946546,0.1218347284344059,9.5187342233048184
1786618143.1258931,1786618143.1254983,vesc,-0.00086034914442379708,-0.00086034914442379708,nan,nan,0.01,1,0,1,0,0,1786618143.1254983,nan,0.00091682389403015165,-0.00028350494130924384,-0.00086034914442379708,-0.10610872349089906,0.054399865510418977,9.6579049784452309
1786618143.1456337,1786618143.1453338,vesc,-0.00091318727474083738,-0.00091318727474083738,nan,nan,0.01,1,0,1,0,0,1786618143.1453338,nan,-0.0033439404862578002,-0.0013486310177999311,-0.00091318727474083738,-0.12949548575799152,0.092849549301391221,9.6098291692942439
1786618143.1656365,1786618143.165247,vesc,-0.00088533669547781837,-0.00088533669547781837,nan,nan,0.01,1,0,1,0,0,1786618143.165247,nan,-0.0012135582961138242,-0.00028343732198469102,-0.00088533669547781837,-0.1106737180362396,0.064031582270640541,9.6387155852961541
1786618143.185837,1786618143.185338,vesc,-0.001940893467209822,-0.001940893467209822,nan,nan,0.01,1,0,1,0,0,1786618143.185338,nan,-0.00013587375060773214,-0.0013458690284662747,-0.001940893467209822,-0.106614324940975,0.049493978277958206,9.7009989596472224
1786618143.2058663,1786618143.2054095,vesc,0.00019807085057294823,0.00019807085057294823,nan,nan,0.01,1,0,1,0,0,1786618143.2054095,nan,-0.00016086117162459086,0.0018441870400148319,0.00019807085057294823,-0.13817604321636079,0.1122159120942694,9.5331335771865042
1786618143.2255991,1786618143.2253447,vesc,0.0033850431527615412,0.0033850431527615412,nan,nan,0.01,1,0,1,0,0,1786618143.2253447,nan,-0.00019834256322420413,-0.0013601835193254505,0.0033850431527615412,-0.097091092308295934,0.020740696073129783,9.7058240822100288
1786618143.2462232,1786618143.2454345,vesc,0.0012575316630191562,0.0012575316630191562,nan,nan,0.01,1,0,1,0,0,1786618143.2454345,nan,-0.00017335514220734541,-0.0002891974481392882,0.0012575316630191562,-0.11941044531237299,0.10733516789018971,9.5668731823875532
1786618143.2657592,1786618143.2654645,vesc,0.0012450379525107266,0.0012450379525107266,nan,nan,0.01,1,0,1,0,0,1786618143.2654645,nan,-0.0012385462372793334,-0.00028916311832836143,0.0012450379525107266,-0.11095460367015963,0.049597145093539297,9.6626248511217909
1786618143.2857728,1786618143.2854695,vesc,0.0023169925404839453,0.0023169925404839453,nan,nan,0.01,1,0,1,0,0,1786618143.2854695,nan,-0.00018584859264144957,-0.0024225808959961073,0.0023169925404839453,-0.14386461684248086,0.083269945852901373,9.6096350417262784
1786618143.3059638,1786618143.305352,vesc,0.00018557710755522823,0.00018557710755522823,nan,nan,0.01,1,0,1,0,0,1786618143.305352,nan,-0.0012260522666965789,0.0018442203295284576,0.00018557710755522823,-0.10154372894555852,0.092668395243709512,9.6772218409009838
1786618143.3256617,1786618143.3253765,vesc,0.00018948118077872315,0.00018948118077872315,nan,nan,0.01,1,0,1,0,0,1786618143.3253765,nan,-0.00016086117162459086,-0.001351594824809945,0.00018948118077872315,-0.15694161371152404,0.1314667192828729,9.4994325636104122
1786618143.3457649,1786618143.3454211,vesc,-0.00085071859216152813,-0.00085071859216152813,nan,nan,0.01,1,0,1,0,0,1786618143.3454211,nan,0.0019820149891021394,-0.0013487985056653618,-0.00085071859216152813,-0.087511671585303041,0.05906053512596543,9.7060392597552436
1786618143.3656213,1786618143.3653555,vesc,0.0012296809537189744,0.0012296809537189744,nan,nan,0.01,1,0,1,0,0,1786618143.3653555,nan,-0.0023037368122026708,-0.0013543901036572276,0.0012296809537189744,-0.14826106538942962,0.045040044289667236,9.5759480614683525
1786618143.3857114,1786618143.3854005,vesc,0.0012489419282063498,0.0012489419282063498,nan,nan,0.01,1,0,1,0,0,1786618143.3854005,nan,-0.00017335514220734541,-0.0034849793129640648,0.0012489419282063498,-0.14437021829255681,0.035253851394319469,9.6526132480533988
1786618143.4056079,1786618143.4053338,vesc,-0.00085748598617763668,-0.00085748598617763668,nan,nan,0.01,1,0,1,0,0,1786618143.4053338,nan,0.00091682389403015165,0.00078175533353324808,-0.00085748598617763668,-0.091571064680567638,0.12628837006190174,9.6438973880290177
1786618143.4257197,1786618143.4253561,vesc,0.00017985066102574486,0.00017985066102574486,nan,nan,0.01,1,0,1,0,0,1786618143.4253561,nan,-0.0012260522666965789,-0.00028630022015652622,0.00017985066102574486,-0.17204106206224523,0.092979649855223556,9.5614270854958932
1786618143.4458475,1786618143.4455051,vesc,0.00019520762730820652,0.00019520762730820652,nan,nan,0.01,1,0,1,0,0,1786618143.4455051,nan,-0.00016086117162459086,0.00077892676517233987,0.00019520762730820652,-0.10137520121971644,0.087917020691474335,9.6628400286670058
1786618143.4656661,1786618143.4653814,vesc,0.0012700253735275855,0.0012700253735275855,nan,nan,0.01,1,0,1,0,0,1786618143.4653814,nan,0.00089183595286464255,-0.0002892307376529142,0.0012700253735275855,-0.12927076994183562,0.064160915377385663,9.5905941678611271
1786618143.4858756,1786618143.4854987,vesc,0.00019234440404346486,0.00019234440404346486,nan,nan,0.01,1,0,1,0,0,1786618143.4854987,nan,-0.00016086117162459086,-0.00028633454996745305,0.00019234440404346486,-0.12915841203375766,0.073766685117039543,9.5810398170763165
1786618143.5056167,1786618143.5053461,vesc,0.00019234440404346486,0.00019234440404346486,nan,nan,0.01,1,0,1,0,0,1786618143.5053461,nan,-0.00016086117162459086,-0.00028633454996745305,0.00019234440404346486,-0.10159991703587234,0.035175242885529201,9.6818575136685467
1786618143.5257704,1786618143.5253313,vesc,0.0022948682777132472,0.0022948682777132472,nan,nan,0.01,1,0,1,0,0,1786618143.5253313,nan,-0.0023162307827854257,-0.0013572530018290626,0.0022948682777132472,-0.14798017975550959,0.12653479366709597,9.5522188898925151
1786618143.5458169,1786618143.5453866,vesc,0.00020197492379644315,0.00020197492379644315,nan,nan,0.01,1,0,1,0,0,1786618143.5453866,nan,0.00090432992344739716,-0.0013516281143235711,0.00020197492379644315,-0.11540724030742222,0.078414673583097283,9.6339080043810554
1786618143.5657091,1786618143.5653303,vesc,0.00016735691800802484,0.00016735691800802484,nan,nan,0.01,1,0,1,0,0,1786618143.5653303,nan,-0.0022912428416199163,-0.00028626693064290023,0.00016735691800802484,-0.12014078085115454,0.083217686360772092,9.6290746957159854
1786618143.5856373,1786618143.5853553,vesc,0.0012728886618109084,0.0012728886618109084,nan,nan,0.01,1,0,1,0,0,1786618143.5853553,nan,0.00089183595286464255,0.00077602953718957789,0.0012728886618109084,-0.12898986603536589,0.083385355276778483,9.5666965964672954
1786618143.6057265,1786618143.6054265,vesc,0.00015486317499030486,0.00015486317499030486,nan,nan,0.01,1,0,1,0,0,1786618143.6054265,nan,-0.0033564344568405551,-0.00028623364112927423,0.00015486317499030486,-0.083059044084315303,0.063773171872846035,9.7348461536208788
1786618143.6255863,1786618143.6252613,vesc,0.00016163047147854149,0.00016163047147854149,nan,nan,0.01,1,0,1,0,0,1786618143.6252613,nan,-0.0022912428416199163,-0.0024167885206251853,0.00016163047147854149,-0.15237662830245835,0.11704499980035976,9.5186090928845033
1786618143.6457343,1786618143.6453869,vesc,-0.00087284285493222644,-0.00087284285493222644,nan,nan,0.01,1,0,1,0,0,1786618143.6453869,nan,-0.00014836720104183631,-0.00028347165179561784,-0.00087284285493222644,-0.10159991703587234,0.025595200895846659,9.6818317859185754
1786618143.6658678,1786618143.6654649,vesc,0.00019520762730820652,0.00019520762730820652,nan,nan,0.01,1,0,1,0,0,1786618143.6654649,nan,-0.00016086117162459086,0.00077892676517233987,0.00019520762730820652,-0.13907490648098442,0.09284984166218635,9.6097169027489144
1786618143.685874,1786618143.6854813,vesc,0.00017412421449626149,0.00017412421449626149,nan,nan,0.01,1,0,1,0,0,1786618143.6854813,nan,-0.0012260522666965789,-0.0024168218101388111,0.00017412421449626149,-0.10565929185858725,0.083242975569550737,9.6196641864423782
1786618143.7020011,1786618143.7010241,vesc,-0.00086711640840274296,-0.00086711640840274296,nan,nan,0.01,1,0,1,0,0,1786618143.7010241,nan,-0.00014836720104183631,0.0018470499381866669,-0.00086711640840274296,-0.12425634376418326,0.078582305954004283,9.5715299051323655
1786618143.7260718,1786618143.7255416,vesc,0.00019234440404346486,0.00019234440404346486,nan,nan,0.01,1,0,1,0,0,1786618143.7255416,nan,-0.00016086117162459086,-0.00028633454996745305,0.00019234440404346486,-0.077819902090507043,0.10698621700865374,9.6967012559588284
1786618143.7458196,1786618143.7454069,vesc,-0.00087284285493222644,-0.00087284285493222644,nan,nan,0.01,1,0,1,0,0,1786618143.7454069,nan,-0.00014836720104183631,-0.00028347165179561784,-0.00087284285493222644,-0.17170400661056107,0.078686824938262845,9.5326505971529514
1786618143.7616341,1786618143.7612407,vesc,0.00021342781685540992,0.00021342781685540992,nan,nan,0.01,1,0,1,0,0,1786618143.7612407,nan,0.00090432992344739716,0.002909414025343698,0.00021342781685540992,-0.092020496312879452,0.063915076493781697,9.6820469634637902
1786618143.7861419,1786618143.7858469,vesc,0.0012507643990402101,0.0012507643990402101,nan,nan,0.01,1,0,1,0,0,1786618143.7858469,nan,-0.0012385462372793334,0.0018413574313566226,0.0012507643990402101,-0.11016809831361396,0.083307514215075429,9.5956590262759391
1786618143.8056967,1786618143.8054016,vesc,-0.0008824734071944954,-0.0008824734071944954,nan,nan,0.01,1,0,1,0,0,1786618143.8054016,nan,-0.0012135582961138242,0.00078182295285780096,-0.0008824734071944954,-0.16296724278932828,0.0066430950771163566,9.6044146473684577
1786618143.8256655,1786618143.82535,vesc,-0.0019755114404889497,-0.0019755114404889497,nan,nan,0.01,1,0,1,0,0,1786618143.82535,nan,-0.0033314465156750457,-0.00028050784478560387,-0.0019755114404889497,-0.12972020157414743,0.1023780992460317,9.6290138846705986
1786618143.8455982,1786618143.8453395,vesc,0.0012882456606026608,0.0012882456606026608,nan,nan,0.01,1,0,1,0,0,1786618143.8453395,nan,0.0019570270479366309,0.0018412565225184438,0.0012882456606026608,-0.14792399166519576,0.10259755256787528,9.5473645312501958
1786618143.8655984,1786618143.8652878,vesc,0.0012786151083403919,0.0012786151083403919,nan,nan,0.01,1,0,1,0,0,1786618143.8652878,nan,0.00089183595286464255,0.0029065511271718623,0.0012786151083403919,-0.086893712227149145,0.049622105396423422,9.6533266083935132
1786618143.8856652,1786618143.8853619,vesc,-0.00091318727474083738,-0.00091318727474083738,nan,nan,0.01,1,0,1,0,0,1786618143.8853619,nan,-0.0033439404862578002,-0.0013486310177999311,-0.00091318727474083738,-0.12532373475464897,0.063967664891805498,9.6624950429287537
1786618143.9056706,1786618143.9053614,vesc,0.0012546685047729958,0.0012546685047729958,nan,nan,0.01,1,0,1,0,0,1786618143.9053614,nan,-0.00017335514220734541,-0.0013544577229817802,0.0012546685047729958,-0.1334986907629423,0.10739999889650953,9.5427569251189652
1786618143.9256015,1786618143.9252942,vesc,0.00020197492379644315,0.00020197492379644315,nan,nan,0.01,1,0,1,0,0,1786618143.9252942,nan,0.00090432992344739716,-0.0013516281143235711,0.00020197492379644315,-0.10650196703289705,0.011199574614298768,9.6913159701125551
1786618143.9456992,1786618143.9454031,vesc,0.0012421747942645664,0.0012421747942645664,nan,nan,0.01,1,0,1,0,0,1786618143.9454031,nan,-0.0012385462372793334,-0.0013544244334681541,0.0012421747942645664,-0.14347135502793318,0.14563035727348606,9.5762743361157163
1786618143.9655457,1786618143.9652717,vesc,-0.00086997969668606593,-0.00086997969668606593,nan,nan,0.01,1,0,1,0,0,1786618143.9652717,nan,-0.00014836720104183631,0.00078178966334417502,-0.00086997969668606593,-0.11044900222008369,0.054503032326000067,9.6195308699197994
1786618143.9855492,1786618143.9852779,vesc,0.0012546685047729958,0.0012546685047729958,nan,nan,0.01,1,0,1,0,0,1786618143.9852779,nan,-0.00017335514220734541,-0.0013544577229817802,0.0012546685047729958,-0.11112314966855141,0.087878684882213065,9.6770967104806687
1786618144.0055265,1786618144.0052261,vesc,0.00018948118077872315,0.00018948118077872315,nan,nan,0.01,1,0,1,0,0,1786618144.0052261,nan,-0.00016086117162459086,-0.001351594824809945,0.00018948118077872315,-0.16680192006843697,0.10266252975459267,9.5231909712657625
1786618144.0256257,1786618144.0253406,vesc,0.00018948118077872315,0.00018948118077872315,nan,nan,0.01,1,0,1,0,0,1786618144.0253406,nan,-0.00016086117162459086,-0.001351594824809945,0.00018948118077872315,-0.07838169163089681,0.039797174695721083,9.7444168766102166
1786618144.0419085,1786618144.0410969,vesc,-0.00087856930146170981,-0.00087856930146170981,nan,nan,0.01,1,0,1,0,0,1786618144.0410969,nan,-0.00014836720104183631,-0.002413992201480602,-0.00087856930146170981,-0.13355486058070642,0.14091726371286306,9.5476358420680754
1786618144.0657287,1786618144.0653725,vesc,0.00019234440404346486,0.00019234440404346486,nan,nan,0.01,1,0,1,0,0,1786618144.0653725,nan,-0.00016086117162459086,-0.00028633454996745305,0.00019234440404346486,-0.11084224576208168,0.025672749596754585,9.6529816226552612
1786618144.0856881,1786618144.0853739,vesc,-0.00090069356423240813,-0.00090069356423240813,nan,nan,0.01,1,0,1,0,0,1786618144.0853739,nan,-0.0022787488710371622,-0.001348664307313557,-0.00090069356423240813,-0.13439755402756592,0.073663847207352973,9.6193016590564184
1786618144.1054862,1786618144.105237,vesc,0.00018661795751398149,0.00018661795751398149,nan,nan,0.01,1,0,1,0,0,1786618144.105237,nan,-0.00016086117162459086,-0.0024168550996524372,0.00018661795751398149,-0.11551961648804987,0.11670907724675672,9.6435898244725422
1786618144.1257255,1786618144.1253724,vesc,0.00016735691800802484,0.00016735691800802484,nan,nan,0.01,1,0,1,0,0,1786618144.1253724,nan,-0.0022912428416199163,-0.00028626693064290023,0.00016735691800802484,-0.16691429624906462,0.073896639490474314,9.5326938665506304
1786618144.1456485,1786618144.1452656,vesc,0.00017985066102574486,0.00017985066102574486,nan,nan,0.01,1,0,1,0,0,1786618144.1452656,nan,-0.0012260522666965789,-0.00028630022015652622,0.00017985066102574486,-0.10655815512321087,0.10698711236358882,9.6963632868796594
1786618144.1655142,1786618144.1652737,vesc,0.00017698743776100315,0.00017698743776100315,nan,nan,0.01,1,0,1,0,0,1786618144.1652737,nan,-0.0012260522666965789,-0.001351561535296319,0.00017698743776100315,-0.16229313188595995,0.064277823150337809,9.5470932204323162
1786618144.1856353,1786618144.1852875,vesc,0.0012518052164896727,0.0012518052164896727,nan,nan,0.01,1,0,1,0,0,1786618144.1852875,nan,-0.00017335514220734541,-0.002419717997824272,0.0012518052164896727,-0.13901871839067059,0.06891261883551536,9.6048637135497756
1786618144.2055314,1786618144.2052658,vesc,0.0012728886618109084,0.0012728886618109084,nan,nan,0.01,1,0,1,0,0,1786618144.2052658,nan,0.00089183595286464255,0.00077602953718957789,0.0012728886618109084,-0.10070103549869902,0.078491454836917995,9.6053385074810649
1786618144.2256308,1786618144.2253165,vesc,0.0012489419282063498,0.0012489419282063498,nan,nan,0.01,1,0,1,0,0,1786618144.2253165,nan,-0.00017335514220734541,-0.0034849793129640648,0.0012489419282063498,-0.13422900802917415,0.054542391398044288,9.6048812551974834
1786618144.2458115,1786618144.2454443,vesc,0.00018844033081996989,0.00018844033081996989,nan,nan,0.01,1,0,1,0,0,1786618144.2454443,nan,-0.0012260522666965789,0.0029094806043709499,0.00018844033081996989,-0.091683422588645591,0.11668258204969817,9.6534505693706478
1786618144.2655442,1786618144.2652187,vesc,0.0012518052164896727,0.0012518052164896727,nan,nan,0.01,1,0,1,0,0,1786618144.2652187,nan,-0.00017335514220734541,-0.002419717997824272,0.0012518052164896727,-0.16268635715540825,0.06897774220263031,9.5806340202926776
1786618144.2859306,1786618144.2854686,vesc,0.00018948118077872315,0.00018948118077872315,nan,nan,0.01,1,0,1,0,0,1786618144.2854686,nan,-0.00016086117162459086,-0.001351594824809945,0.00018948118077872315,-0.15333168879367065,0.078505999786475655,9.5999310022143618
1786618144.305707,1786618144.3052809,vesc,0.00019520762730820652,0.00019520762730820652,nan,nan,0.01,1,0,1,0,0,1786618144.3052809,nan,-0.00016086117162459086,0.00077892676517233987,0.00019520762730820652,-0.083059034948040456,0.03503304590379841,9.7347689703709648
1786618144.3256714,1786618144.3253071,vesc,0.0012296809537189744,0.0012296809537189744,nan,nan,0.01,1,0,1,0,0,1786618144.3253071,nan,-0.0023037368122026708,-0.0013543901036572276,0.0012296809537189744,-0.1424601338552316,0.11233192451228646,9.4899705988368623
1786618144.3457725,1786618144.3453712,vesc,0.00020770137032592652,0.00020770137032592652,nan,nan,0.01,1,0,1,0,0,1786618144.3453712,nan,0.00090432992344739716,0.00077889243536141293,0.00020770137032592652,-0.11112314966855141,0.025608393676726848,9.676929480105855
1786618144.3656433,1786618144.3653936,vesc,-0.00086321230266995738,-0.00086321230266995738,nan,nan,0.01,1,0,1,0,0,1786618144.3653936,nan,0.00091682389403015165,-0.0013487652161517359,-0.00086321230266995738,-0.12983255948222538,0.10714237421835193,9.6386068270803662
1786618144.3870285,1786618144.3863742,vesc,-0.00090069356423240813,-0.00090069356423240813,nan,nan,0.01,1,0,1,0,0,1786618144.3863742,nan,-0.0022787488710371622,-0.001348664307313557,-0.00090069356423240813,-0.12476194521425921,0.092836502700908596,9.6146753418342996
1786618144.4059105,1786618144.4056346,vesc,0.001304643346806713,0.001304643346806713,nan,nan,0.01,1,0,1,0,0,1786618144.4056346,nan,0.0040874097582292573,-0.001354591921333585,0.001304643346806713,-0.077932250862310148,0.078220363289634776,9.7062029818005158
1786618144.425807,1786618144.4254882,vesc,-0.00090069356423240813,-0.00090069356423240813,nan,nan,0.01,1,0,1,0,0,1786618144.4254882,nan,-0.0022787488710371622,-0.001348664307313557,-0.00090069356423240813,-0.17649371697205751,0.093057015830634526,9.5326330555052436
1786618144.445698,1786618144.4454267,vesc,-0.00087570614321554941,-0.00087570614321554941,nan,nan,0.01,1,0,1,0,0,1786618144.4454267,nan,-0.00014836720104183631,-0.0013487319266381099,-0.00087570614321554941,-0.10165608685363647,0.039952418277934498,9.6866604168109234
1786618144.4655938,1786618144.4653189,vesc,-0.00087570614321554941,-0.00087570614321554941,nan,nan,0.01,1,0,1,0,0,1786618144.4653189,nan,-0.00014836720104183631,-0.0013487319266381099,-0.00087570614321554941,-0.15260134411861426,0.078673339796587527,9.5376651695110013
1786618144.4855487,1786618144.4852812,vesc,-0.00089783040598624762,-0.00089783040598624762,nan,nan,0.01,1,0,1,0,0,1786618144.4852812,nan,-0.0022787488710371622,-0.00028340403247106507,-0.00089783040598624762,-0.12504284912072894,0.06882202353412481,9.6385600493531456
1786618144.5056405,1786618144.5053713,vesc,-0.0029907236623751793,-0.0029907236623751793,nan,nan,0.01,1,0,1,0,0,1786618144.5053713,nan,0.00094181131504701037,-0.00027777914496557348,-0.0029907236623751793,-0.13445372384533005,0.040120854641028103,9.6240004817557292
1786618144.5256014,1786618144.5252578,vesc,0.00020483814706118484,0.00020483814706118484,nan,nan,0.01,1,0,1,0,0,1786618144.5252578,nan,0.00090432992344739716,-0.00028636783948107899,0.00020483814706118484,-0.096416944859828213,0.087955466136033778,9.6485272135806781
1786618144.5455618,1786618144.5453248,vesc,0.0012479011107568872,0.0012479011107568872,nan,nan,0.01,1,0,1,0,0,1786618144.5453248,nan,-0.0012385462372793334,0.00077609715651413066,0.0012479011107568872,-0.13851309866804495,0.054658385543511656,9.561717107404661
1786618144.5655999,1786618144.5653381,vesc,-0.001950524019472091,-0.001950524019472091,nan,nan,0.01,1,0,1,0,0,1786618144.5653381,nan,-0.0012010648456797202,-0.00028057442381285586,-0.001950524019472091,-0.096585490858219991,0.06396675126432072,9.6628318425647421
1786618144.5856652,1786618144.5853744,vesc,0.0023255820152224267,0.0023255820152224267,nan,nan,0.01,1,0,1,0,0,1786618144.5853744,nan,-0.00018584859264144957,0.00077320096882866945,0.0023255820152224267,-0.10092575131485493,0.059279878812510844,9.6244460396075056
1786618144.6059136,1786618144.6055121,vesc,0.0012603948212653164,0.0012603948212653164,nan,nan,0.01,1,0,1,0,0,1786618144.6055121,nan,-0.00017335514220734541,0.00077606386700050461,0.0012603948212653164,-0.115575786305814,0.05921592488857641,9.6482254972401051
1786618144.6255803,1786618144.6252742,vesc,0.0023380759858051808,0.0023380759858051808,nan,nan,0.01,1,0,1,0,0,1786618144.6252742,nan,0.00087934250243053844,0.00077316663901774252,0.0023380759858051808,-0.12898986603536589,0.13607560449258216,9.5668380990921378
1786618144.6459031,1786618144.6455109,vesc,0.00019234440404346486,0.00019234440404346486,nan,nan,0.01,1,0,1,0,0,1786618144.6455109,nan,-0.00016086117162459086,-0.00028633454996745305,0.00019234440404346486,-0.13885017239227881,0.045001123758815709,9.5904292763726744
1786618144.6657531,1786618144.6654284,vesc,0.00019911170053170147,0.00019911170053170147,nan,nan,0.01,1,0,1,0,0,1786618144.6654284,nan,0.00090432992344739716,-0.0024168883891660629,0.00019911170053170147,-0.11089843385239551,0.078350134937572591,9.6579131645474945
1786618144.6857979,1786618144.6854651,vesc,-0.0019226731801347467,-0.0019226731801347467,nan,nan,0.01,1,0,1,0,0,1786618144.6854651,nan,0.00092931734446425576,0.00078461823170508345,-0.0019226731801347467,-0.11050517203784782,0.059280171173305973,9.6243337730621761
1786618144.7056847,1786618144.7054276,vesc,0.00020483814706118484,0.00020483814706118484,nan,nan,0.01,1,0,1,0,0,1786618144.7054276,nan,0.00090432992344739716,-0.00028636783948107899,0.00020483814706118484,-0.1768869787866052,0.064226769646488435,9.5660838082407054
1786618144.7258787,1786618144.7254879,vesc,-0.00087570614321554941,-0.00087570614321554941,nan,nan,0.01,1,0,1,0,0,1786618144.7254879,nan,-0.00014836720104183631,-0.0013487319266381099,-0.00087570614321554941,-0.10216170657626211,0.063786657014521353,9.7298315812628289
1786618144.7460184,1786618144.7456055,vesc,-0.00088819985372397866,-0.00088819985372397866,nan,nan,0.01,1,0,1,0,0,1786618144.7456055,nan,-0.0012135582961138242,-0.001348698637124484,-0.00088819985372397866,-0.15716632952767995,0.16015535320687846,9.5186687344867096
1786618144.7658062,1786618144.7654583,vesc,0.00022305833660838821,0.00022305833660838821,nan,nan,0.01,1,0,1,0,0,1786618144.7654583,nan,0.0019695210185193849,0.0018441194206902792,0.00022305833660838821,-0.10622108139897701,0.011263930534326505,9.6673681126619613
1786618144.7859311,1786618144.7855253,vesc,0.0001933852540022181,0.0001933852540022181,nan,nan,0.01,1,0,1,0,0,1786618144.7855253,nan,0.00090432992344739716,-0.004547409979148348,0.0001933852540022181,-0.11044900222008369,0.083243121749948301,9.6196080531697135
1786618144.8059673,1786618144.8054101,vesc,-0.00086034914442379708,-0.00086034914442379708,nan,nan,0.01,1,0,1,0,0,1786618144.8054101,nan,0.00091682389403015165,-0.00028350494130924384,-0.00086034914442379708,-0.15321930347676815,0.054581640834790335,9.5902866043046515
1786618144.8257804,1786618144.8253946,vesc,-0.00089496711770292476,-0.00089496711770292476,nan,nan,0.01,1,0,1,0,0,1786618144.8253946,nan,-0.0022787499113344628,0.00078185624237142701,-0.00089496711770292476,-0.082609612452003489,0.097406321199368762,9.6966182254930118
1786618144.8459883,1786618144.8455694,vesc,0.0012421747942645664,0.0012421747942645664,nan,nan,0.01,1,0,1,0,0,1786618144.8455694,nan,-0.0012385462372793334,-0.0013544244334681541,0.0012421747942645664,-0.18105871151739805,0.12663883756506245,9.5135079817310952
1786618144.8659127,1786618144.8655739,vesc,-0.00088533669547781837,-0.00088533669547781837,nan,nan,0.01,1,0,1,0,0,1786618144.8655739,nan,-0.0012135582961138242,-0.00028343732198469102,-0.00088533669547781837,-0.11101079176047346,0.049584244673454236,9.6674148903891819
1786618144.8858583,1786618144.8856354,vesc,-0.00088819985372397866,-0.00088819985372397866,nan,nan,0.01,1,0,1,0,0,1786618144.8856354,nan,-0.0012135582961138242,-0.001348698637124484,-0.00088819985372397866,-0.13873783275675056,0.068976974755543097,9.5809146866560013
1786618144.9056635,1786618144.9053631,vesc,-0.0019630177299805205,-0.0019630177299805205,nan,nan,0.01,1,0,1,0,0,1786618144.9053631,nan,-0.0022662549004544073,-0.00028054113429922987,-0.0019630177299805205,-0.12448105958033917,0.11206096087285111,9.5907789398836485
1786618144.9258764,1786618144.9255338,vesc,-0.00087570614321554941,-0.00087570614321554941,nan,nan,0.01,1,0,1,0,0,1786618144.9255338,nan,-0.00014836720104183631,-0.0013487319266381099,-0.00087570614321554941,-0.12431251358194739,0.040249237575189056,9.5762158639566906
1786618144.9457641,1786618144.9454548,vesc,0.0023005945942055676,0.0023005945942055676,nan,nan,0.01,1,0,1,0,0,1786618144.9454548,nan,-0.0023162318230827263,0.00077326754785592144,0.0023005945942055676,-0.10159991703587234,0.087865492101332876,9.6819990162933891
1786618144.9656625,1786618144.9653735,vesc,-0.00087284285493222644,-0.00087284285493222644,nan,nan,0.01,1,0,1,0,0,1786618144.9653735,nan,-0.00014836720104183631,-0.00028347165179561784,-0.00087284285493222644,-0.12887750812728793,0.083411119571849213,9.557117687375694
1786618144.9858818,1786618144.9854937,vesc,0.00020483814706118484,0.00020483814706118484,nan,nan,0.01,1,0,1,0,0,1786618144.9854937,nan,0.00090432992344739716,-0.00028636783948107899,0.00020483814706118484,-0.13445372384533005,0.092811067311732387,9.6241419843805716
1786618145.0059118,1786618145.0055766,vesc,0.00017022014127276652,0.00017022014127276652,nan,nan,0.01,1,0,1,0,0,1786618145.0055766,nan,-0.0022912438819172173,0.00077899334419959175,0.00017022014127276652,-0.12414398585610531,0.059447949724610538,9.5618983710976408
1786618145.0258355,1786618145.0254836,vesc,0.0012642990570352647,0.0012642990570352647,nan,nan,0.01,1,0,1,0,0,1786618145.0254836,nan,0.00089183595286464255,-0.0024197512873378982,0.0012642990570352647,-0.11106696157823759,0.054361420065859534,9.6722177935315585
1786618145.0461001,1786618145.0455363,vesc,-0.0019130426278724777,-0.0019130426278724777,nan,nan,0.01,1,0,1,0,0,1786618145.0455363,nan,0.0019945084395362441,-0.00028067533265103463,-0.0019130426278724777,-0.11974751903660685,0.12162799280715042,9.595649670730495
1786618145.0659473,1786618145.06546,vesc,0.00018557710755522823,0.00018557710755522823,nan,nan,0.01,1,0,1,0,0,1786618145.06546,nan,-0.0012260522666965789,0.0018442203295284576,0.00018557710755522823,-0.13901871839067059,0.054542537578441852,9.6048251219248186
1786618145.085974,1786618145.0856152,vesc,0.00018661795751398149,0.00018661795751398149,nan,nan,0.01,1,0,1,0,0,1786618145.0856152,nan,-0.00016086117162459086,-0.0024168550996524372,0.00018661795751398149,-0.13467845793403566,0.10233961725637286,9.6433266997569262
1786618145.1057794,1786618145.1054652,vesc,-0.00089783040598624762,-0.00089783040598624762,nan,nan,0.01,1,0,1,0,0,1786618145.1054652,nan,-0.0022787488710371622,-0.00028340403247106507,-0.00089783040598624762,-0.087399313677225088,0.078246383400401243,9.6965106367204044
1786618145.1255417,1786618145.1252937,vesc,0.00019234440404346486,0.00019234440404346486,nan,nan,0.01,1,0,1,0,0,1786618145.1252937,nan,-0.00016086117162459086,-0.00028633454996745305,0.00019234440404346486,-0.14302192339562136,0.14094332036872892,9.5379446664311445
1786618145.1458328,1786618145.1454692,vesc,0.00018661795751398149,0.00018661795751398149,nan,nan,0.01,1,0,1,0,0,1786618145.1454692,nan,-0.00016086117162459086,-0.0024168550996524372,0.00018661795751398149,-0.083059044084315303,0.054193129883163493,9.7348204258709075
1786618145.1656873,1786618145.1654122,vesc,0.0012632581095486394,0.0012632581095486394,nan,nan,0.01,1,0,1,0,0,1786618145.1654122,nan,-0.00017335514220734541,0.0018413241418429966,0.0012632581095486394,-0.14307811148593519,0.093030228272780846,9.5426048975054982
1786618145.1858113,1786618145.1854894,vesc,0.0023102251464678365,0.0023102251464678365,nan,nan,0.01,1,0,1,0,0,1786618145.1854894,nan,-0.0012510396877134374,-0.00029202601650019658,0.0023102251464678365,-0.1294392976676777,0.088072373908985924,9.6050274355950478
1786618145.2057292,1786618145.2053995,vesc,0.0012450379525107266,0.0012450379525107266,nan,nan,0.01,1,0,1,0,0,1786618145.2053995,nan,-0.0012385462372793334,-0.00028916311832836143,0.0012450379525107266,-0.09664166067598412,0.10227405534806522,9.6677247928320185
1786618145.2257082,1786618145.2253888,vesc,-0.00086711640840274296,-0.00086711640840274296,nan,nan,0.01,1,0,1,0,0,1786618145.2253888,nan,-0.00014836720104183631,0.0018470499381866669,-0.00086711640840274296,-0.13366721848878438,0.092991307741929319,9.5570872818530006
1786618145.2455626,1786618145.2453008,vesc,-0.0019034120756102088,-0.0019034120756102088,nan,nan,0.01,1,0,1,0,0,1786618145.2453008,nan,0.003059700054756882,-0.0013459699373044535,-0.0019034120756102088,-0.07838169163089681,0.068537300664768708,9.7444940598601306
1786618145.2655382,1786618145.2652352,vesc,-0.0019476606011516052,-0.0019476606011516052,nan,nan,0.01,1,0,1,0,0,1786618145.2652352,nan,-0.0012010648456797202,0.00078468585102963622,-0.0019476606011516052,-0.18601696787728628,0.11702031358572107,9.5277950690674515
1786618145.2857566,1786618145.2853959,vesc,-0.00087284285493222644,-0.00087284285493222644,nan,nan,0.01,1,0,1,0,0,1786618145.2853959,nan,-0.00014836720104183631,-0.00028347165179561784,-0.00087284285493222644,-0.12509901893849307,0.020908949710726432,9.6432202804274993
1786618145.3057005,1786618145.3053844,vesc,-0.0019562503359644118,-0.0019562503359644118,nan,nan,0.01,1,0,1,0,0,1786618145.3053844,nan,-0.0012010648456797202,-0.0024110960137951405,-0.0019562503359644118,-0.12521137684657102,0.049623311384703328,9.6528775422121953
1786618145.3255293,1786618145.3252754,vesc,0.00020197492379644315,0.00020197492379644315,nan,nan,0.01,1,0,1,0,0,1786618145.3252754,nan,0.00090432992344739716,-0.0013516281143235711,0.00020197492379644315,-0.13400429221301824,0.097704090669207488,9.585838042445971
1786618145.3456724,1786618145.3453484,vesc,0.00016449369474328318,0.00016449369474328318,nan,nan,0.01,1,0,1,0,0,1786618145.3453484,nan,-0.0022912428416199163,-0.0013515272054853921,0.00016449369474328318,-0.13400429221301824,0.045013841453403813,9.5856965398211287
1786618145.3656116,1786618145.3652432,vesc,0.00019520762730820652,0.00019520762730820652,nan,nan,0.01,1,0,1,0,0,1786618145.3652432,nan,-0.00016086117162459086,0.00077892676517233987,0.00019520762730820652,-0.096416944859828213,0.10232554739310729,9.6485658052056351
1786618145.3862464,1786618145.3855402,vesc,0.00019807085057294823,0.00019807085057294823,nan,nan,0.01,1,0,1,0,0,1786618145.3855402,nan,-0.00016086117162459086,0.0018441870400148319,0.00019807085057294823,-0.10120665522132466,0.05442544707999275,9.6483810331831137
1786618145.4056771,1786618145.4053097,vesc,0.00020483814706118484,0.00020483814706118484,nan,nan,0.01,1,0,1,0,0,1786618145.4053097,nan,0.00090432992344739716,-0.00028636783948107899,0.00020483814706118484,-0.11117931948631554,0.049545616503397838,9.6817838387481743
1786618145.4255464,1786618145.4252605,vesc,0.00019807085057294823,0.00019807085057294823,nan,nan,0.01,1,0,1,0,0,1786618145.4252605,nan,-0.00016086117162459086,0.0018441870400148319,0.00019807085057294823,-0.12397543985771353,0.12175688737270285,9.5476966531134622
1786618145.4456868,1786618145.445329,vesc,-0.0019312629149475528,-0.0019312629149475528,nan,nan,0.01,1,0,1,0,0,1786618145.445329,nan,0.00092931734446425576,-0.0024111625928223929,-0.0019312629149475528,-0.11591286003004786,0.025608576402223804,9.6768733468331902
1786618145.4659967,1786618145.4656811,vesc,-0.003006080531129769,-0.003006080531129769,nan,nan,0.01,1,0,1,0,0,1786618145.4656811,nan,-0.00012337978002497762,-0.0013430061302944394,-0.003006080531129769,-0.12504284912072894,0.1023521887705634,9.6386500964780453
1786618145.4857676,1786618145.4854736,vesc,0.00018661795751398149,0.00018661795751398149,nan,nan,0.01,1,0,1,0,0,1786618145.4854736,nan,-0.00016086117162459086,-0.0024168550996524372,0.00018661795751398149,-0.12983255948222538,0.068822169714522374,9.6385039160804808
1786618145.505475,1786618145.5052357,vesc,-0.00087284285493222644,-0.00087284285493222644,nan,nan,0.01,1,0,1,0,0,1786618145.5052357,nan,-0.00014836720104183631,-0.00028347165179561784,-0.00087284285493222644,-0.12420015567386944,0.069015127839307411,9.5667141381150032
1786618145.5254223,1786618145.5252085,vesc,0.0012325442420022975,0.0012325442420022975,nan,nan,0.01,1,0,1,0,0,1786618145.5252085,nan,-0.0023037368122026708,-0.00028912982881473543,0.0012325442420022975,-0.068521376137709034,0.087761448203366399,9.720709924454809
1786618145.5454798,1786618145.5452724,vesc,-0.00086034914442379708,-0.00086034914442379708,nan,nan,0.01,1,0,1,0,0,1786618145.5452724,nan,0.00091682389403015165,-0.00028350494130924384,-0.00086034914442379708,-0.14290956548754341,0.13617904539640868,9.5283517240213769
1786618145.5655327,1786618145.5653222,vesc,0.00019520762730820652,0.00019520762730820652,nan,nan,0.01,1,0,1,0,0,1786618145.5653222,nan,-0.00016086117162459086,0.00077892676517233987,0.00019520762730820652,-0.087062239952991227,0.03042339324700194,9.6676441012525629
1786618145.5855601,1786618145.5853107,vesc,0.0012518052164896727,0.0012518052164896727,nan,nan,0.01,1,0,1,0,0,1786618145.5853107,nan,-0.00017335514220734541,-0.002419717997824272,0.0012518052164896727,-0.10154372894555852,0.068718308542052853,9.6771575215260555
1786618145.6056478,1786618145.6053228,vesc,0.00018948118077872315,0.00018948118077872315,nan,nan,0.01,1,0,1,0,0,1786618145.6053228,nan,-0.00016086117162459086,-0.001351594824809945,0.00018948118077872315,-0.12487430312233716,0.059280609714498667,9.6241642038010013
1786618145.6256766,1786618145.6252923,vesc,-0.00090069356423240813,-0.00090069356423240813,nan,nan,0.01,1,0,1,0,0,1786618145.6252923,nan,-0.0022787488710371622,-0.001348664307313557,-0.00090069356423240813,-0.082384887499572734,0.087877771254728287,9.6774346795598376
1786618145.6458127,1786618145.6454403,vesc,0.00016163047147854149,0.00016163047147854149,nan,nan,0.01,1,0,1,0,0,1786618145.6454403,nan,-0.0022912428416199163,-0.0024167885206251853,0.00016163047147854149,-0.15739104534383586,0.0930435672340586,9.5376476278632936
1786618145.6656857,1786618145.6653924,vesc,0.00017985066102574486,0.00017985066102574486,nan,nan,0.01,1,0,1,0,0,1786618145.6653924,nan,-0.0012260522666965789,-0.00028630022015652622,0.00017985066102574486,-0.063844023684290541,0.054205409036558905,9.7302549196941754
1786618145.6857629,1786618145.6853995,vesc,0.00019234440404346486,0.00019234440404346486,nan,nan,0.01,1,0,1,0,0,1786618145.6853995,nan,-0.00016086117162459086,-0.00028633454996745305,0.00019234440404346486,-0.16263018733764412,0.078570648067298521,9.575869708775258
1786618145.7056882,1786618145.7053638,vesc,0.0012575316630191562,0.0012575316630191562,nan,nan,0.01,1,0,1,0,0,1786618145.7053638,nan,-0.00017335514220734541,-0.0002891974481392882,0.0012575316630191562,-0.12932693975959975,0.083308098936665687,9.5954344931852802
1786618145.7256877,1786618145.725332,vesc,0.0023227191170505914,0.0023227191170505914,nan,nan,0.01,1,0,1,0,0,1786618145.725332,nan,-0.00018584859264144957,-0.00029206034631112335,0.0023227191170505914,-0.11563195612357813,0.035252974311934082,9.6529512171325678
1786618145.745919,1786618145.7455013,vesc,0.00018271388429048652,0.00018271388429048652,nan,nan,0.01,1,0,1,0,0,1786618145.7455013,nan,-0.0012260522666965789,0.00077896005468596581,0.00018271388429048652,-0.12498666103041511,0.11194509463523161,9.6338857849606256
1786618145.7659466,1786618145.7655306,vesc,-0.00085748598617763668,-0.00085748598617763668,nan,nan,0.01,1,0,1,0,0,1786618145.7655306,nan,0.00091682389403015165,0.00078175533353324808,-0.00085748598617763668,-0.13394810412270441,0.040236702606097907,9.580893636678752
1786618145.7858593,1786618145.7855244,vesc,-0.00088533669547781837,-0.00088533669547781837,nan,nan,0.01,1,0,1,0,0,1786618145.7855244,nan,-0.0012135582961138242,-0.00028343732198469102,-0.00088533669547781837,-0.13885019066482851,0.092901333707228417,9.5905579151225311
1786618145.8056483,1786618145.8053734,vesc,0.00020770137032592652,0.00020770137032592652,nan,nan,0.01,1,0,1,0,0,1786618145.8053734,nan,0.00090432992344739716,0.00077889243536141293,0.00020770137032592652,-0.12955165557575565,0.088046646159014585,9.6146063446866492
1786618145.8255253,1786618145.8252189,vesc,0.00020197492379644315,0.00020197492379644315,nan,nan,0.01,1,0,1,0,0,1786618145.8252189,nan,0.00090432992344739716,-0.0013516281143235711,0.00020197492379644315,-0.12053402439315253,0.063967518711407934,9.6625511762014185
1786618145.845819,1786618145.8454471,vesc,-0.00087856930146170981,-0.00087856930146170981,nan,nan,0.01,1,0,1,0,0,1786618145.8454471,nan,-0.00014836720104183631,-0.002413992201480602,-0.00087856930146170981,-0.14302192339562136,0.13136327837904638,9.5379189386811731
1786618145.8657408,1786618145.865423,vesc,0.0012546685047729958,0.0012546685047729958,nan,nan,0.01,1,0,1,0,0,1786618145.865423,nan,-0.00017335514220734541,-0.0013544577229817802,0.0012546685047729958,-0.10120665522132466,0.02089531838865355,9.648290986058214
1786618145.8861201,1786618145.8855712,vesc,0.00021446866681416318,0.00021446866681416318,nan,nan,0.01,1,0,1,0,0,1786618145.8855712,nan,0.0019695210185193849,-0.0013516614038371971,0.00021446866681416318,-0.13411665012109619,0.097678344646686455,9.5954169515375725
1786618145.9059341,1786618145.9055071,vesc,-0.00084785543391536762,-0.00084785543391536762,nan,nan,0.01,1,0,1,0,0,1786618145.9055071,nan,0.0019820149891021394,-0.00028353823082286983,-0.00084785543391536762,-0.10115048540356053,0.059228386767468777,9.6436038577907084
1786618145.9260259,1786618145.9255898,vesc,0.00018948118077872315,0.00018948118077872315,nan,nan,0.01,1,0,1,0,0,1786618145.9255898,nan,-0.00016086117162459086,-0.001351594824809945,0.00018948118077872315,-0.11957899131076477,0.088136474013317923,9.581190675246603
1786618145.9457657,1786618145.9454281,vesc,0.00017985066102574486,0.00017985066102574486,nan,nan,0.01,1,0,1,0,0,1786618145.9454281,nan,-0.0012260522666965789,-0.00028630022015652622,0.00017985066102574486,-0.087736387401458948,0.073379124337996871,9.725236839006584
1786618145.9657464,1786618145.9654152,vesc,0.00019234440404346486,0.00019234440404346486,nan,nan,0.01,1,0,1,0,0,1786618145.9654152,nan,-0.00016086117162459086,-0.00028633454996745305,0.00019234440404346486,-0.14262867985362337,0.10750327534738879,9.5043266833208691
1786618145.9857769,1786618145.9854398,vesc,0.00018661795751398149,0.00018661795751398149,nan,nan,0.01,1,0,1,0,0,1786618145.9854398,nan,-0.00016086117162459086,-0.0024168550996524372,0.00018661795751398149,-0.14375225893440291,0.088085712870263677,9.6000689965096626
1786618146.0058951,1786618146.0054889,vesc,-0.0019312629149475528,-0.0019312629149475528,nan,nan,0.01,1,0,1,0,0,1786618146.0054889,nan,0.00092931734446425576,-0.0024111625928223929,-0.0019312629149475528,-0.12459341748841712,0.078505086158990878,9.6002678018503502
1786618146.0262594,1786618146.0257568,vesc,0.00020770137032592652,0.00020770137032592652,nan,nan,0.01,1,0,1,0,0,1786618146.0257568,nan,0.00090432992344739716,0.00077889243536141293,0.00020770137032592652,-0.11957899131076477,0.045026266787196789,9.5810749003717319
1786618146.0459521,1786618146.0456231,vesc,0.0012728886618109084,0.0012728886618109084,nan,nan,0.01,1,0,1,0,0,1786618146.0456231,nan,0.00089183595286464255,0.00077602953718957789,0.0012728886618109084,-0.082441075589886559,0.1070249913591077,9.6822750048839907
1786618146.0657485,1786618146.0654485,vesc,0.00017698743776100315,0.00017698743776100315,nan,nan,0.01,1,0,1,0,0,1786618146.0654485,nan,-0.0012260522666965789,-0.001351561535296319,0.00017698743776100315,-0.16691429624906462,0.097846762737230364,9.5327581859255588
1786618146.0859256,1786618146.0854056,vesc,0.0012700253735275855,0.0012700253735275855,nan,nan,0.01,1,0,1,0,0,1786618146.0854056,nan,0.00089183595286464255,-0.0002892307376529142,0.0012700253735275855,-0.1008695814970908,0.054502703420105547,9.6196431364651289
1786618146.1055951,1786618146.1052682,vesc,0.0023294862509923749,0.0023294862509923749,nan,nan,0.01,1,0,1,0,0,1786618146.1052682,nan,0.00087934250243053844,-0.0024226141855097335,0.0023294862509923749,-0.12994491739030334,0.08795652594391612,9.6481342806720249
1786618146.1259308,1786618146.1253734,vesc,0.00020483814706118484,0.00020483814706118484,nan,nan,0.01,1,0,1,0,0,1786618146.1253734,nan,0.00090432992344739716,-0.00028636783948107899,0.00020483814706118484,-0.14335899711985522,0.097755875075044685,9.5665667882742582
1786618146.1458592,1786618146.1454093,vesc,0.0023198556987301055,0.0023198556987301055,nan,nan,0.01,1,0,1,0,0,1786618146.1454093,nan,-0.00018584859264144957,-0.0013573206211536155,0.0023198556987301055,-0.12983255948222538,0.030502001755792207,9.638399835637415
1786618146.1657791,1786618146.1654975,vesc,0.00017022014127276652,0.00017022014127276652,nan,nan,0.01,1,0,1,0,0,1786618146.1654975,nan,-0.0022912438819172173,0.00077899334419959175,0.00017022014127276652,-0.11535107048965809,0.10237764243228931,9.6291822844885928
1786618146.1858573,1786618146.1854625,vesc,-0.00084212898738588436,-0.00084212898738588436,nan,nan,0.01,1,0,1,0,0,1786618146.1854625,nan,0.0019820149891021394,0.0018469823188621143,-0.00084212898738588436,-0.12019695066891867,0.073624780496103881,9.633839007233405
1786618146.205723,1786618146.2053897,vesc,-0.0029878607642033444,-0.0029878607642033444,nan,nan,0.01,1,0,1,0,0,1786618146.2053897,nan,0.00094181131504701037,0.0007874811298769185,-0.0029878607642033444,-0.12532373475464897,0.054387622902122956,9.6624693151787824
1786618146.2257593,1786618146.22544,vesc,0.00020483814706118484,0.00020483814706118484,nan,nan,0.01,1,0,1,0,0,1786618146.22544,nan,0.00090432992344739716,-0.00028636783948107899,0.00020483814706118484,-0.1433028273020911,0.092978736227738779,9.5617638851318816
1786618146.2456732,1786618146.2453666,vesc,0.00017985066102574486,0.00017985066102574486,nan,nan,0.01,1,0,1,0,0,1786618146.2453666,nan,-0.0012260522666965789,-0.00028630022015652622,0.00017985066102574486,-0.073423444407283434,0.03504561741798895,9.7300911976489033
1786618146.2659919,1786618146.265506,vesc,-0.0008824734071944954,-0.0008824734071944954,nan,nan,0.01,1,0,1,0,0,1786618146.265506,nan,-0.0012135582961138242,0.00078182295285780096,-0.0008824734071944954,-0.14307811148593519,0.12177037251437817,9.5426820807554122
1786618146.2859199,1786618146.2855206,vesc,-0.00088533669547781837,-0.00088533669547781837,nan,nan,0.01,1,0,1,0,0,1786618146.2855206,nan,-0.0012135582961138242,-0.00028343732198469102,-0.00088533669547781837,-0.12030930857699662,0.049648929499376493,9.6433535969500781
1786618146.3058572,1786618146.3054695,vesc,0.00020483814706118484,0.00020483814706118484,nan,nan,0.01,1,0,1,0,0,1786618146.3054695,nan,0.00090432992344739716,-0.00028636783948107899,0.00020483814706118484,-0.12515520702880689,0.068796295784153472,9.648138958444747
1786618146.3256168,1786618146.3252816,vesc,0.00017985066102574486,0.00017985066102574486,nan,nan,0.01,1,0,1,0,0,1786618146.3252816,nan,-0.0012260522666965789,-0.00028630022015652622,0.00017985066102574486,-0.077314282367881404,0.087942017539457851,9.653541785938728
1786618146.3457515,1786618146.3454318,vesc,0.00022019511334364655,0.00022019511334364655,nan,nan,0.01,1,0,1,0,0,1786618146.3454318,nan,0.0019695210185193849,0.00077885914584778699,0.00022019511334364655,-0.19046958624199917,0.10272765312170762,9.498962447451845
1786618146.3661399,1786618146.3657136,vesc,0.00018948118077872315,0.00018948118077872315,nan,nan,0.01,1,0,1,0,0,1786618146.3657136,nan,-0.00016086117162459086,-0.001351594824809945,0.00018948118077872315,-0.097596712030921573,0.044574934809716638,9.7489952466619343
1786618146.3864489,1786618146.3859818,vesc,0.00018661795751398149,0.00018661795751398149,nan,nan,0.01,1,0,1,0,0,1786618146.3859818,nan,-0.00016086117162459086,-0.0024168550996524372,0.00018661795751398149,-0.11078607594431755,0.064005817975569812,9.6482944943877555
1786618146.4060476,1786618146.4053962,vesc,0.00019234440404346486,0.00019234440404346486,nan,nan,0.01,1,0,1,0,0,1786618146.4053962,nan,-0.00016086117162459086,-0.00028633454996745305,0.00019234440404346486,-0.16809404514760828,0.059256234133204799,9.6332390828818006
1786618146.4259028,1786618146.4256201,vesc,0.0012614357687519416,0.0012614357687519416,nan,nan,0.01,1,0,1,0,0,1786618146.4256201,nan,0.00089183595286464255,-0.003485012602477691,0.0012614357687519416,-0.11518252449126631,0.097626249607504434,9.6148004722546148
1786618146.4460211,1786618146.4455979,vesc,0.00019911170053170147,0.00019911170053170147,nan,nan,0.01,1,0,1,0,0,1786618146.4455979,nan,0.00090432992344739716,-0.0024168883891660629,0.00019911170053170147,-0.15744725170669938,0.069080580112316881,9.5423721783125757
1786618146.4659293,1786618146.465636,vesc,-0.0008824734071944954,-0.0008824734071944954,nan,nan,0.01,1,0,1,0,0,1786618146.465636,nan,-0.0012135582961138242,0.00078182295285780096,-0.0008824734071944954,-0.077876071908271172,0.078233227164620445,9.7014129425331248
1786618146.4858367,1786618146.4854617,vesc,0.00021446866681416318,0.00021446866681416318,nan,nan,0.01,1,0,1,0,0,1786618146.4854617,nan,0.0019695210185193849,-0.0013516614038371971,0.00021446866681416318,-0.15293841784284812,0.083386122723865697,9.5664159301039717
1786618146.5058036,1786618146.5054746,vesc,-0.00090069356423240813,-0.00090069356423240813,nan,nan,0.01,1,0,1,0,0,1786618146.5054746,nan,-0.0022787488710371622,-0.001348664307313557,-0.00090069356423240813,-0.14876666683950557,0.059294241036571549,9.6190946676134672
1786618146.5257621,1786618146.5254445,vesc,0.00019234440404346486,0.00019234440404346486,nan,nan,0.01,1,0,1,0,0,1786618146.5254445,nan,-0.00016086117162459086,-0.00028633454996745305,0.00019234440404346486,-0.12059021248346635,0.035214492322275248,9.6672640322188954
1786618146.5457947,1786618146.5454319,vesc,-0.0019380303089636616,-0.0019380303089636616,nan,nan,0.01,1,0,1,0,0,1786618146.5454319,nan,-0.00013587375060773214,-0.00028060875362378264,-0.0019380303089636616,-0.15321932174931785,0.14559202146422479,9.5905310179293792
1786618146.5657947,1786618146.5654466,vesc,0.00020483814706118484,0.00020483814706118484,nan,nan,0.01,1,0,1,0,0,1786618146.5654466,nan,0.00090432992344739716,-0.00028636783948107899,0.00020483814706118484,-0.1106737180362396,0.03050141703420195,9.6386255381712544
1786618146.5861318,1786618146.5855775,vesc,0.00018375473424923978,0.00018375473424923978,nan,nan,0.01,1,0,1,0,0,1786618146.5855775,nan,-0.00016086117162459086,-0.00348211641479223,0.00018375473424923978,-0.14831725347974345,0.078557309106020767,9.5808281478606432
1786618146.605823,1786618146.6054678,vesc,0.0023227191170505914,0.0023227191170505914,nan,nan,0.01,1,0,1,0,0,1786618146.6054678,nan,-0.00018584859264144957,-0.00029206034631112335,0.0023227191170505914,-0.12960784366606948,0.073663701026955408,9.6193577923290832
1786618146.625766,1786618146.6254208,vesc,0.00018271388429048652,0.00018271388429048652,nan,nan,0.01,1,0,1,0,0,1786618146.6254208,nan,-0.0012260522666965789,0.00077896005468596581,0.00018271388429048652,-0.082834328268159396,0.059034661195596527,9.7156743021195098
1786618146.6457431,1786618146.6454148,vesc,0.0023255820152224267,0.0023255820152224267,nan,nan,0.01,1,0,1,0,0,1786618146.6454148,nan,-0.00018584859264144957,0.00077320096882866945,0.0023255820152224267,-0.14764310603127573,0.14098209471918288,9.5235195847994873
1786618146.6656401,1786618146.665349,vesc,-0.00088143258974503278,-0.00088143258974503278,nan,nan,0.01,1,0,1,0,0,1786618146.665349,nan,-0.00014836720104183631,-0.0034792535166203948,-0.00088143258974503278,-0.087567859675616866,0.030307545281932136,9.7107509463295401
1786618146.686136,1786618146.685678,vesc,0.00018661795751398149,0.00018661795751398149,nan,nan,0.01,1,0,1,0,0,1786618146.685678,nan,-0.00016086117162459086,-0.0024168550996524372,0.00018661795751398149,-0.15327549156708198,0.11204901062535022,9.5952310100718705
1786618146.706156,1786618146.7055473,vesc,0.00019234440404346486,0.00019234440404346486,nan,nan,0.01,1,0,1,0,0,1786618146.7055473,nan,-0.00016086117162459086,-0.00028633454996745305,0.00019234440404346486,-0.10103812749548258,0.08799424048648774,9.634102131949021
1786618146.7258966,1786618146.7254605,vesc,-0.00083822488165309877,-0.00083822488165309877,nan,nan,0.01,1,0,1,0,0,1786618146.7254605,nan,0.0030472060841741275,-0.0013488328354762885,-0.00083822488165309877,-0.1482048772991158,0.059422989421726413,9.5711977832690991
1786618146.7459931,1786618146.7454586,vesc,0.00015772639825504655,0.00015772639825504655,nan,nan,0.01,1,0,1,0,0,1786618146.7454586,nan,-0.0033564354971378557,0.0007790266337132178,0.00015772639825504655,-0.082497254543925536,0.092642046227048525,9.6870264525264247
1786618146.7657807,1786618146.7654665,vesc,0.00017985066102574486,0.00017985066102574486,nan,nan,0.01,1,0,1,0,0,1786618146.7654665,nan,-0.0012260522666965789,-0.00028630022015652622,0.00017985066102574486,-0.16652103443451693,0.1027269039471701,9.4992431138151687
1786618146.7855537,1786618146.7852912,vesc,0.0012642990570352647,0.0012642990570352647,nan,nan,0.01,1,0,1,0,0,1786618146.7852912,nan,0.00089183595286464255,-0.0024197512873378982,0.0012642990570352647,-0.14290956548754341,0.09785885916512882,9.5282488130214915
1786618146.8058608,1786618146.8055456,vesc,-0.0029878607642033444,-0.0029878607642033444,nan,nan,0.01,1,0,1,0,0,1786618146.8055456,nan,0.00094181131504701037,0.0007874811298769185,-0.0029878607642033444,-0.10098193940516875,0.083217101639181834,9.6292992288066444
1786618146.8257616,1786618146.8254135,vesc,0.00017698743776100315,0.00017698743776100315,nan,nan,0.01,1,0,1,0,0,1786618146.8254135,nan,-0.0012260522666965789,-0.001351561535296319,0.00017698743776100315,-0.14442640638287063,0.054401071498698883,9.6574547428207325
1786618146.8459373,1786618146.8455732,vesc,-0.00088533669547781837,-0.00088533669547781837,nan,nan,0.01,1,0,1,0,0,1786618146.8455732,nan,-0.0012135582961138242,-0.00028343732198469102,-0.00088533669547781837,-0.077314282367881404,0.097522041256590697,9.6535675136886994
1786618146.8659174,1786618146.8656197,vesc,-0.00087570614321554941,-0.00087570614321554941,nan,nan,0.01,1,0,1,0,0,1786618146.8656197,nan,-0.00014836720104183631,-0.0013487319266381099,-0.00087570614321554941,-0.14814870748135167,0.069015895286394624,9.5664334717516795
1786618146.8856099,1786618146.8852968,vesc,0.00017985066102574486,0.00017985066102574486,nan,nan,0.01,1,0,1,0,0,1786618146.8852968,nan,-0.0012260522666965789,-0.00028630022015652622,0.00017985066102574486,-0.077258103413842427,0.068794797435078436,9.6487002911713944
1786618146.9061396,1786618146.9054499,vesc,0.00018661795751398149,0.00018661795751398149,nan,nan,0.01,1,0,1,0,0,1786618146.9054499,nan,-0.00016086117162459086,-0.0024168550996524372,0.00018661795751398149,-0.14392078666024499,0.054516919463768687,9.6143478977437553
1786618146.9256825,1786618146.9253979,vesc,0.00018948118077872315,0.00018948118077872315,nan,nan,0.01,1,0,1,0,0,1786618146.9253979,nan,-0.00016086117162459086,-0.001351594824809945,0.00018948118077872315,-0.15767196752285528,0.092979174768931472,9.5615954853138874
1786618146.9458115,1786618146.9454589,vesc,0.0023227191170505914,0.0023227191170505914,nan,nan,0.01,1,0,1,0,0,1786618146.9454589,nan,-0.00018584859264144957,-0.00029206034631112335,0.0023227191170505914,-0.097203450216373888,0.020714968323158445,9.7154029913016302
1786618146.9659379,1786618146.9655356,vesc,0.0012450379525107266,0.0012450379525107266,nan,nan,0.01,1,0,1,0,0,1786618146.9655356,nan,-0.0012385462372793334,-0.00028916311832836143,0.0012450379525107266,-0.14341518521016905,0.1169030951794241,9.5714082830415919
1786618146.985826,1786618146.9854679,vesc,0.00016058962151978823,0.00016058962151978823,nan,nan,0.01,1,0,1,0,0,1786618146.9854679,nan,-0.0033564354971378557,0.0018442879488530107,0.00016058962151978823,-0.12977638966446126,0.087995154113972518,9.6337653323130326
1786618147.0058672,1786618147.0055294,vesc,0.0012239545071894911,0.0012239545071894911,nan,nan,0.01,1,0,1,0,0,1786618147.0055294,nan,-0.0023037368122026708,-0.0034849116936395124,0.0012239545071894911,-0.12487430312233716,0.073650690971572175,9.6242039648691389
1786618147.0255826,1786618147.0252898,vesc,0.0012421747942645664,0.0012421747942645664,nan,nan,0.01,1,0,1,0,0,1786618147.0252898,nan,-0.0012385462372793334,-0.0013544244334681541,0.0012421747942645664,-0.14313428130369932,0.078647283140721669,9.5473563451479322
1786618147.0456843,1786618147.0453029,vesc,0.00018661795751398149,0.00018661795751398149,nan,nan,0.01,1,0,1,0,0,1786618147.0453029,nan,-0.00016086117162459086,-0.0024168550996524372,0.00018661795751398149,-0.078494049538974764,0.054141491657723861,9.7540355467699555
1786618147.0657711,1786618147.0654838,vesc,0.00020483814706118484,0.00020483814706118484,nan,nan,0.01,1,0,1,0,0,1786618147.0654838,nan,0.00090432992344739716,-0.00028636783948107899,0.00020483814706118484,-0.13800749721796901,0.14578468722821469,9.5188546759524115
1786618147.0857549,1786618147.0853565,vesc,0.0012546685047729958,0.0012546685047729958,nan,nan,0.01,1,0,1,0,0,1786618147.0853565,nan,-0.00017335514220734541,-0.0013544577229817802,0.0012546685047729958,-0.11106696157823759,0.054361420065859534,9.6722177935315585
1786618147.1057203,1786618147.1053388,vesc,0.0012479011107568872,0.0012479011107568872,nan,nan,0.01,1,0,1,0,0,1786618147.1053388,nan,-0.0012385462372793334,0.00077609715651413066,0.0012479011107568872,-0.13935581038745415,0.087995446474767647,9.6336530657677031
1786618147.1255763,1786618147.1253023,vesc,0.00018661795751398149,0.00018661795751398149,nan,nan,0.01,1,0,1,0,0,1786618147.1253023,nan,-0.00016086117162459086,-0.0024168550996524372,0.00018661795751398149,-0.10582781958442933,0.083204383944593729,9.6340331348013706
1786618147.1457403,1786618147.1453915,vesc,-0.00087961024894833511,-0.00087961024894833511,nan,nan,0.01,1,0,1,0,0,1786618147.1453915,nan,-0.0012135582961138242,0.0018470832277002929,-0.00087961024894833511,-0.15767196752285528,0.097769214036322438,9.561608349188873
1786618147.1659071,1786618147.1655161,vesc,-0.00086711640840274296,-0.00086711640840274296,nan,nan,0.01,1,0,1,0,0,1786618147.1655161,nan,-0.00014836720104183631,0.0018470499381866669,-0.00086711640840274296,-0.09664166067598412,0.078323932101309168,9.6676604734570901
1786618147.1856046,1786618147.1853061,vesc,0.00020197492379644315,0.00020197492379644315,nan,nan,0.01,1,0,1,0,0,1786618147.1853061,nan,0.00090432992344739716,-0.0013516281143235711,0.00020197492379644315,-0.096922564582453852,0.035149368955160298,9.6914937254759934
1786618147.2056446,1786618147.2053246,vesc,0.0012546685047729958,0.0012546685047729958,nan,nan,0.01,1,0,1,0,0,1786618147.2053246,nan,-0.00017335514220734541,-0.0013544577229817802,0.0012546685047729958,-0.11957899131076477,0.059396311499170906,9.5811134919966889
1786618147.225642,1786618147.2253368,vesc,0.00017985066102574486,0.00017985066102574486,nan,nan,0.01,1,0,1,0,0,1786618147.2253368,nan,-0.0012260522666965789,-0.00028630022015652622,0.00017985066102574486,-0.13383576448717616,0.097742700566714191,9.5714690940869787
1786618147.2456686,1786618147.2453718,vesc,0.0012786151083403919,0.0012786151083403919,nan,nan,0.01,1,0,1,0,0,1786618147.2453718,nan,0.00089183595286464255,0.0029065511271718623,0.0012786151083403919,-0.14397695647800912,0.044924013599100476,9.6191122092611749
1786618147.2658098,1786618147.2654414,vesc,0.00018271388429048652,0.00018271388429048652,nan,nan,0.01,1,0,1,0,0,1786618147.2654414,nan,-0.0012260522666965789,0.00077896005468596581,0.00018271388429048652,-0.11512635467350218,0.11200917646701392,9.6100501940553613
1786618147.2858114,1786618147.2854164,vesc,-0.00089106301197013917,-0.00089106301197013917,nan,nan,0.01,1,0,1,0,0,1786618147.2854164,nan,-0.0012135582961138242,-0.0024139589119669758,-0.00089106301197013917,-0.14319046939401314,0.083424421988027575,9.5521592482903088
1786618147.3056479,1786618147.3053708,vesc,-0.00086321230266995738,-0.00086321230266995738,nan,nan,0.01,1,0,1,0,0,1786618147.3053708,nan,0.00091682389403015165,-0.0013487652161517359,-0.00086321230266995738,-0.13479081584211361,0.08315380552703644,9.6528553227917655
1786618147.3256562,1786618147.3253591,vesc,0.0012882456606026608,0.0012882456606026608,nan,nan,0.01,1,0,1,0,0,1786618147.3253591,nan,0.0019570270479366309,0.0018412565225184438,0.0012882456606026608,-0.12075874020930843,0.068706029388657441,9.6817230277027875
1786618147.3456638,1786618147.3453798,vesc,-0.00090069356423240813,-0.00090069356423240813,nan,nan,0.01,1,0,1,0,0,1786618147.3453798,nan,-0.0022787488710371622,-0.001348664307313557,-0.00090069356423240813,-0.1524889862105363,0.11222923278299746,9.528175138101119
1786618147.3658006,1786618147.3654664,vesc,-0.00088533669547781837,-0.00088533669547781837,nan,nan,0.01,1,0,1,0,0,1786618147.3654664,nan,-0.0012135582961138242,-0.00028343732198469102,-0.00088533669547781837,-0.10633343930705497,0.039978328753402792,9.6770242050034767
1786618147.3856754,1786618147.3853195,vesc,0.00017985066102574486,0.00017985066102574486,nan,nan,0.01,1,0,1,0,0,1786618147.3853195,nan,-0.0012260522666965789,-0.00028630022015652622,0.00017985066102574486,-0.11997223485276276,0.08325631453082849,9.614705747356993
1786618147.4057038,1786618147.4054229,vesc,0.00019520762730820652,0.00019520762730820652,nan,nan,0.01,1,0,1,0,0,1786618147.4054229,nan,-0.00016086117162459086,0.00077892676517233987,0.00019520762730820652,-0.1106737180362396,0.092771708239688166,9.6387927685460681
1786618147.425566,1786618147.4252868,vesc,-0.0040780351191029877,-0.0040780351191029877,nan,nan,0.01,1,0,1,0,0,1786618147.4252868,nan,-0.001176076904514211,0.00079041164737330652,-0.0040780351191029877,-0.096754018584062074,0.059138120371972747,9.6771879270487489
1786618147.4456067,1786618147.4453123,vesc,0.0012450379525107266,0.0012450379525107266,nan,nan,0.01,1,0,1,0,0,1786618147.4453123,nan,-0.0012385462372793334,-0.00028916311832836143,0.0012450379525107266,-0.13800749721796901,0.097884459007252289,9.5187260372025548
1786618147.4655788,1786618147.4653263,vesc,0.00020197492379644315,0.00020197492379644315,nan,nan,0.01,1,0,1,0,0,1786618147.4653263,nan,0.00090432992344739716,-0.0013516281143235711,0.00020197492379644315,-0.092526097762955395,0.063799228528711893,9.7251549779839479
1786618147.4856548,1786618147.4852941,vesc,-0.0008564450386910115,-0.0008564450386910115,nan,nan,0.01,1,0,1,0,0,1786618147.4852941,nan,0.0019820149891021394,-0.0034793200956476466,-0.0008564450386910115,-0.13344250267262847,0.1074128627714952,9.5379668858515743
1786618147.5056422,1786618147.5053122,vesc,-0.00086034914442379708,-0.00086034914442379708,nan,nan,0.01,1,0,1,0,0,1786618147.5053122,nan,0.00091682389403015165,-0.00028350494130924384,-0.00086034914442379708,-0.11084224576208168,0.054412912110901601,9.6530588059051752
1786618147.5256412,1786618147.5253267,vesc,-0.00087284285493222644,-0.00087284285493222644,nan,nan,0.01,1,0,1,0,0,1786618147.5253267,nan,-0.00014836720104183631,-0.00028347165179561784,-0.00087284285493222644,-0.12002842294307658,0.054503324686795196,9.61941860337447
1786618147.5454853,1786618147.5452843,vesc,-0.00088533669547781837,-0.00088533669547781837,nan,nan,0.01,1,0,1,0,0,1786618147.5452843,nan,-0.0012135582961138242,-0.00028343732198469102,-0.00088533669547781837,-0.13490317375019156,0.11665818819585461,9.6625242790082666
1786618147.565594,1786618147.5653198,vesc,0.00020483814706118484,0.00020483814706118484,nan,nan,0.01,1,0,1,0,0,1786618147.5653198,nan,0.00090432992344739716,-0.00028636783948107899,0.00020483814706118484,-0.15744725170669938,0.069080580112316881,9.5423721783125757
1786618147.5855815,1786618147.5852933,vesc,0.0023294862509923749,0.0023294862509923749,nan,nan,0.01,1,0,1,0,0,1786618147.5852933,nan,0.00087934250243053844,-0.0024226141855097335,0.0023294862509923749,-0.14792399166519576,0.078647429321119233,9.5473002118752675
1786618147.6056535,1786618147.60534,vesc,-0.0019062754939306943,-0.0019062754939306943,nan,nan,0.01,1,0,1,0,0,1786618147.60534,nan,0.0030597003148312074,-0.0024112302121469453,-0.0019062754939306943,-0.1204778545753884,0.049610301329320095,9.6577225453090705
1786618147.6255867,1786618147.6252985,vesc,0.00017022014127276652,0.00017022014127276652,nan,nan,0.01,1,0,1,0,0,1786618147.6252985,nan,-0.0022912438819172173,0.00077899334419959175,0.00017022014127276652,-0.13473462775179978,0.073586627412339567,9.6480395557744032
1786618147.6456907,1786618147.6454003,vesc,-0.00087961024894833511,-0.00087961024894833511,nan,nan,0.01,1,0,1,0,0,1786618147.6454003,nan,-0.0012135582961138242,0.0018470832277002929,-0.00087961024894833511,-0.12459341748841712,0.13119531710224486,9.6004093044751926
1786618147.6655388,1786618147.6652441,vesc,-0.00088533669547781837,-0.00088533669547781837,nan,nan,0.01,1,0,1,0,0,1786618147.6652441,nan,-0.0012135582961138242,-0.00028343732198469102,-0.00088533669547781837,-0.13901871839067059,0.040172492866467735,9.6047865302998616
1786618147.6857922,1786618147.6854649,vesc,0.00018661795751398149,0.00018661795751398149,nan,nan,0.01,1,0,1,0,0,1786618147.6854649,nan,-0.00016086117162459086,-0.0024168550996524372,0.00018661795751398149,-0.1057716497666652,0.06884716656250589,9.6292045039090226
1786618147.7055869,1786618147.7053373,vesc,-0.00091318727474083738,-0.00091318727474083738,nan,nan,0.01,1,0,1,0,0,1786618147.7053373,nan,-0.0033439404862578002,-0.0013486310177999311,-0.00091318727474083738,-0.15823373879069536,0.088060423661485032,9.6094795057832698
1786618147.7257195,1786618147.7253871,vesc,0.00017412421449626149,0.00017412421449626149,nan,nan,0.01,1,0,1,0,0,1786618147.7253871,nan,-0.0012260522666965789,-0.0024168218101388111,0.00017412421449626149,-0.14831725347974345,0.073767306383729192,9.5808152839856575
1786618147.7456527,1786618147.7453201,vesc,-0.00086034914442379708,-0.00086034914442379708,nan,nan,0.01,1,0,1,0,0,1786618147.7453201,nan,0.00091682389403015165,-0.00028350494130924384,-0.00086034914442379708,-0.1115164114830991,0.06383847796545794,9.7105603270911161
1786618147.7654898,1786618147.7652762,vesc,-0.001940893467209822,-0.001940893467209822,nan,nan,0.01,1,0,1,0,0,1786618147.7652762,nan,-0.00013587375060773214,-0.0013458690284662747,-0.001940893467209822,-0.15243281639277217,0.12661217791505663,9.5234248599018656
1786618147.7855964,1786618147.7853146,vesc,-0.00086997969668606593,-0.00086997969668606593,nan,nan,0.01,1,0,1,0,0,1786618147.7853146,nan,-0.00014836720104183631,0.00078178966334417502,-0.00086997969668606593,-0.14380842875216704,0.12639303522655787,9.6049619467769389
1786618147.805789,1786618147.8054197,vesc,-0.0008824734071944954,-0.0008824734071944954,nan,nan,0.01,1,0,1,0,0,1786618147.8054197,nan,-0.0012135582961138242,0.00078182295285780096,-0.0008824734071944954,-0.12014078085115454,0.040107479134650958,9.6289589208411144
1786618147.825577,1786618147.8252988,vesc,-0.0019198100218885861,-0.0019198100218885861,nan,nan,0.01,1,0,1,0,0,1786618147.8252988,nan,0.00092931734446425576,0.001849879546844876,-0.0019198100218885861,-0.14386461684248086,0.088059985120292339,9.609647905601264
1786618147.8456094,1786618147.8452723,vesc,0.00016735691800802484,0.00016735691800802484,nan,nan,0.01,1,0,1,0,0,1786618147.8452723,nan,-0.0022912428416199163,-0.00028626693064290023,0.00016735691800802484,-0.10655815512321087,0.087827046656773433,9.6963118313797168
1786618147.8657253,1786618147.8653779,vesc,0.00017308336453750821,0.00017308336453750821,nan,nan,0.01,1,0,1,0,0,1786618147.8653779,nan,-0.0022912438819172173,0.0018442536190420836,0.00017308336453750821,-0.15699782007438756,0.13145383713533754,9.5042226028778032
1786618147.8856485,1786618147.8853271,vesc,0.00021056459359066821,0.00021056459359066821,nan,nan,0.01,1,0,1,0,0,1786618147.8853271,nan,0.00090432992344739716,0.001844153750501206,0.00021056459359066821,-0.087230785951383005,0.054334888323701591,9.6820773689864836
1786618147.9056251,1786618147.9052758,vesc,0.0012825190840360147,0.0012825190840360147,nan,nan,0.01,1,0,1,0,0,1786618147.9052758,nan,0.0019570270479366309,-0.00028926402716654019,0.0012825190840360147,-0.13901871839067059,0.092862705537172019,9.604928032924704
1786618147.9256065,1786618147.925287,vesc,0.0023227191170505914,0.0023227191170505914,nan,nan,0.01,1,0,1,0,0,1786618147.925287,nan,-0.00018584859264144957,-0.00029206034631112335,0.0023227191170505914,-0.12493049121265098,0.078427829818878081,9.629005698568335
1786618147.9459145,1786618147.9454317,vesc,0.00021446866681416318,0.00021446866681416318,nan,nan,0.01,1,0,1,0,0,1786618147.9454317,nan,0.0019695210185193849,-0.0013516614038371971,0.00021446866681416318,-0.1245372293981033,0.044987784797537955,9.5953877154580596
1786618147.9655495,1786618147.9653049,vesc,-0.00089783040598624762,-0.00089783040598624762,nan,nan,0.01,1,0,1,0,0,1786618147.9653049,nan,-0.0022787488710371622,-0.00028340403247106507,-0.00089783040598624762,-0.096360775042064084,0.1119184532577755,9.643802663131396
1786618147.9855957,1786618147.985316,vesc,-0.00086711640840274296,-0.00086711640840274296,nan,nan,0.01,1,0,1,0,0,1786618147.985316,nan,-0.00014836720104183631,0.0018470499381866669,-0.00086711640840274296,-0.077763714000193218,0.068678912924909241,9.6918083056915521
1786618148.0055535,1786618148.0053096,vesc,-0.0030157110833920384,-0.0030157110833920384,nan,nan,0.01,1,0,1,0,0,1786618148.0053096,nan,-0.0011885708750969657,-0.00027771152564102071,-0.0030157110833920384,-0.14302192339562136,0.093043092147766515,9.5378160276812878
1786618148.0257783,1786618148.0254085,vesc,-0.00086711640840274296,-0.00086711640840274296,nan,nan,0.01,1,0,1,0,0,1786618148.0254085,nan,-0.00014836720104183631,0.0018470499381866669,-0.00086711640840274296,-0.14375225893440291,0.083295710147972102,9.6000561326346769
1786618148.0459321,1786618148.0453548,vesc,-0.0009035568525157311,-0.0009035568525157311,nan,nan,0.01,1,0,1,0,0,1786618148.0453548,nan,-0.0022787488710371622,-0.0024139256224533496,-0.0009035568525157311,-0.11084224576208168,0.030462788864145551,9.6529944865302468
1786618148.0656893,1786618148.0653396,vesc,0.00016449369474328318,0.00016449369474328318,nan,nan,0.01,1,0,1,0,0,1786618148.0653396,nan,-0.0022912428416199163,-0.0013515272054853921,0.00016449369474328318,-0.095798985501674316,0.13599730661713672,9.5959700981619562
1786618148.0856907,1786618148.085357,vesc,0.00020483814706118484,0.00020483814706118484,nan,nan,0.01,1,0,1,0,0,1786618148.085357,nan,0.00090432992344739716,-0.00028636783948107899,0.00020483814706118484,-0.1294392976676777,0.021012079981208132,9.6048473413452484
1786618148.1056254,1786618148.1053669,vesc,0.00019520762730820652,0.00019520762730820652,nan,nan,0.01,1,0,1,0,0,1786618148.1053669,nan,-0.00016086117162459086,0.00077892676517233987,0.00019520762730820652,-0.12526756493688485,0.087930615468447826,9.6577693230362911
1786618148.1258972,1786618148.1255217,vesc,0.0012603948212653164,0.0012603948212653164,nan,nan,0.01,1,0,1,0,0,1786618148.1255217,nan,-0.00017335514220734541,0.00077606386700050461,0.0012603948212653164,-0.11529488239934427,0.092810482590142129,9.624367686914411
1786618148.14556,1786618148.1453111,vesc,-0.00084499214563204465,-0.00084499214563204465,nan,nan,0.01,1,0,1,0,0,1786618148.1453111,nan,0.0019820149891021394,0.00078172204401962214,-0.00084499214563204465,-0.14307811148593519,0.08824018900538988,9.5425920336305126
1786618148.1656229,1786618148.165381,vesc,0.00018271388429048652,0.00018271388429048652,nan,nan,0.01,1,0,1,0,0,1786618148.165381,nan,-0.0012260522666965789,0.00077896005468596581,0.00018271388429048652,-0.097091092308295934,0.063850866754151525,9.7059398570848998
1786618148.1856275,1786618148.1853728,vesc,0.0012421747942645664,0.0012421747942645664,nan,nan,0.01,1,0,1,0,0,1786618148.1853728,nan,-0.0012385462372793334,-0.0013544244334681541,0.0012421747942645664,-0.11095460367015963,-0.0030931041222643785,9.6624833484969486
1786618148.2055495,1786618148.2053056,vesc,-0.00087570614321554941,-0.00087570614321554941,nan,nan,0.01,1,0,1,0,0,1786618148.2053056,nan,-0.00014836720104183631,-0.0013487319266381099,-0.00087570614321554941,-0.11997223485276276,0.097626395787901998,9.61474433898195
1786618148.2255483,1786618148.2253013,vesc,-0.00089106301197013917,-0.00089106301197013917,nan,nan,0.01,1,0,1,0,0,1786618148.2253013,nan,-0.0012135582961138242,-0.0024139589119669758,-0.00089106301197013917,-0.12036549666731045,0.1023262965676448,9.6482851388423114
1786618148.245496,1786618148.2452455,vesc,0.00018271388429048652,0.00018271388429048652,nan,nan,0.01,1,0,1,0,0,1786618148.2452455,nan,-0.0012260522666965789,0.00077896005468596581,0.00018271388429048652,-0.12887750812728793,0.073831077582166671,9.5570919596257227
1786618148.2656088,1786618148.2653701,vesc,0.0012546685047729958,0.0012546685047729958,nan,nan,0.01,1,0,1,0,0,1786618148.2653701,nan,-0.00017335514220734541,-0.0013544577229817802,0.0012546685047729958,-0.06350694996005668,0.097392854330243139,9.7016327978510617
1786618148.2855318,1786618148.2853069,vesc,0.00020770137032592652,0.00020770137032592652,nan,nan,0.01,1,0,1,0,0,1786618148.2853069,nan,0.00090432992344739716,0.00077889243536141293,0.00020770137032592652,-0.18105871151739805,0.1026887143183064,9.5134436623561669
1786618148.3055191,1786618148.3052902,vesc,-0.00087284285493222644,-0.00087284285493222644,nan,nan,0.01,1,0,1,0,0,1786618148.3052902,nan,-0.00014836720104183631,-0.00028347165179561784,-0.00087284285493222644,-0.10154372894555852,0.078298350531735394,9.6771832492760268
1786618148.3255346,1786618148.3252926,vesc,-0.00088143258974503278,-0.00088143258974503278,nan,nan,0.01,1,0,1,0,0,1786618148.3252926,nan,-0.00014836720104183631,-0.0034792535166203948,-0.00088143258974503278,-0.13439755402756592,0.068873844485061397,9.6192887951814328
1786618148.345655,1786618148.345366,vesc,-0.00088819985372397866,-0.00088819985372397866,nan,nan,0.01,1,0,1,0,0,1786618148.345366,nan,-0.0012135582961138242,-0.001348698637124484,-0.00088819985372397866,-0.12459341748841712,0.097665151865806266,9.6003192573502929
1786618148.3657792,1786618148.3654771,vesc,-0.00088819985372397866,-0.00088819985372397866,nan,nan,0.01,1,0,1,0,0,1786618148.3654771,nan,-0.0012135582961138242,-0.001348698637124484,-0.00088819985372397866,-0.15784047697614767,0.045040336650462365,9.5758357949230231
1786618148.385875,1786618148.3854558,vesc,0.00020197492379644315,0.00020197492379644315,nan,nan,0.01,1,0,1,0,0,1786618148.3854558,nan,0.00090432992344739716,-0.0013516281143235711,0.00020197492379644315,-0.17159163042993342,0.064342471431160675,9.5230319269932124
1786618148.4059942,1786618148.4055903,vesc,-0.00088533669547781837,-0.00088533669547781837,nan,nan,0.01,1,0,1,0,0,1786618148.4055903,nan,-0.0012135582961138242,-0.00028343732198469102,-0.00088533669547781837,-0.10672670112160265,0.09257842120900861,9.7106936436136948
1786618148.4259746,1786618148.4255152,vesc,-0.0019562503359644118,-0.0019562503359644118,nan,nan,0.01,1,0,1,0,0,1786618148.4255152,nan,-0.0012010648456797202,-0.0024110960137951405,-0.0019562503359644118,-0.11529488239934427,0.068860359343386079,9.6243033675394827
1786618148.4460213,1786618148.4456985,vesc,0.0012671622152814249,0.0012671622152814249,nan,nan,0.01,1,0,1,0,0,1786618148.4456985,nan,0.00089183595286464255,-0.0013544910124954062,0.0012671622152814249,-0.14809251939103785,0.059448717171697751,9.5616177047343172
1786618148.4658804,1786618148.465492,vesc,0.00019911170053170147,0.00019911170053170147,nan,nan,0.01,1,0,1,0,0,1786618148.465492,nan,0.00090432992344739716,-0.0024168883891660629,0.00019911170053170147,-0.10594017749250728,0.035278409701110292,9.6434834051431153
1786618148.4856796,1786618148.4853811,vesc,0.00016735691800802484,0.00016735691800802484,nan,nan,0.01,1,0,1,0,0,1786618148.4853811,nan,-0.0022912428416199163,-0.00028626693064290023,0.00016735691800802484,-0.12470577539649508,0.092849403120993657,9.6098853025669086
1786618148.505712,1786618148.5053437,vesc,0.00020483814706118484,0.00020483814706118484,nan,nan,0.01,1,0,1,0,0,1786618148.5053437,nan,0.00090432992344739716,-0.00028636783948107899,0.00020483814706118484,-0.11997223485276276,0.064096230551463407,9.6146542918570503
1786618148.5257623,1786618148.5254564,vesc,-0.00087284285493222644,-0.00087284285493222644,nan,nan,0.01,1,0,1,0,0,1786618148.5254564,nan,-0.00014836720104183631,-0.00028347165179561784,-0.00087284285493222644,-0.13467845793403566,0.073599491287325236,9.6432495165070122
1786618148.5456243,1786618148.545387,vesc,-0.0008824734071944954,-0.0008824734071944954,nan,nan,0.01,1,0,1,0,0,1786618148.545387,nan,-0.0012135582961138242,0.00078182295285780096,-0.0008824734071944954,-0.092750813579111302,0.068537739205961401,9.7443256600421364
1786618148.5663128,1786618148.5655501,vesc,0.00014523265523732652,0.00014523265523732652,nan,nan,0.01,1,0,1,0,0,1786618148.5655501,nan,-0.0044216260720611935,0.00077906096352414452,0.00014523265523732652,-0.16697046606682875,0.10262390158453627,9.5375610890679354
1786618148.585839,1786618148.5854816,vesc,-0.00088533669547781837,-0.00088533669547781837,nan,nan,0.01,1,0,1,0,0,1786618148.5854816,nan,-0.0012135582961138242,-0.00028343732198469102,-0.00088533669547781837,-0.14769927584903986,0.14575923356648879,9.5283213184986835
1786618148.605787,1786618148.6054387,vesc,0.00018948118077872315,0.00018948118077872315,nan,nan,0.01,1,0,1,0,0,1786618148.6054387,nan,-0.00016086117162459086,-0.001351594824809945,0.00018948118077872315,-0.12509901893849307,0.049649075679774057,9.6432974636774134
1786618148.6257508,1786618148.6253829,vesc,0.0012575316630191562,0.0012575316630191562,nan,nan,0.01,1,0,1,0,0,1786618148.6253829,nan,-0.00017335514220734541,-0.0002891974481392882,0.0012575316630191562,-0.13907490648098442,0.078479796950212233,9.6096783111239574
1786618148.64557,1786618148.6452565,vesc,0.0012603948212653164,0.0012603948212653164,nan,nan,0.01,1,0,1,0,0,1786618148.6452565,nan,-0.00017335514220734541,0.00077606386700050461,0.0012603948212653164,-0.12059021248346635,0.097484783527761465,9.6674312625937091
1786618148.6668658,1786618148.665298,vesc,0.0012421747942645664,0.0012421747942645664,nan,nan,0.01,1,0,1,0,0,1786618148.665298,nan,-0.0012385462372793334,-0.0013544244334681541,0.0012421747942645664,-0.15203955457822449,0.088382130171424933,9.4897940129166045
1786618148.6860385,1786618148.6853039,vesc,0.00017985066102574486,0.00017985066102574486,nan,nan,0.01,1,0,1,0,0,1786618148.6853039,nan,-0.0012260522666965789,-0.00028630022015652622,0.00017985066102574486,-0.092245212129035359,0.06386358444873963,9.7012059510901736
1786618148.7056317,1786618148.7053385,vesc,0.00020197492379644315,0.00020197492379644315,nan,nan,0.01,1,0,1,0,0,1786618148.7053385,nan,0.00090432992344739716,-0.0013516281143235711,0.00020197492379644315,-0.16234930170372408,0.097795106239241036,9.5519733068246069
1786618148.7258549,1786618148.7254624,vesc,-0.00088819985372397866,-0.00088819985372397866,nan,nan,0.01,1,0,1,0,0,1786618148.7254624,nan,-0.0012135582961138242,-0.001348698637124484,-0.00088819985372397866,-0.13450991193564388,0.083218161447064176,9.6289062958979912
1786618148.7460279,1786618148.7453618,vesc,0.0012325442420022975,0.0012325442420022975,nan,nan,0.01,1,0,1,0,0,1786618148.7453618,nan,-0.0023037368122026708,-0.00028912982881473543,0.0012325442420022975,-0.12526756493688485,0.054400486777108625,9.6576792759113914
1786618148.7657206,1786618148.7653434,vesc,0.00016449369474328318,0.00016449369474328318,nan,nan,0.01,1,0,1,0,0,1786618148.7653434,nan,-0.0022912428416199163,-0.0013515272054853921,0.00016449369474328318,-0.12008459276084071,0.13113077845672017,9.6244144646416316
1786618148.7856164,1786618148.7852917,vesc,0.00020093407383768989,0.00020093407383768989,nan,nan,0.01,1,0,1,0,0,1786618148.7852917,nan,-0.00016086117162459086,0.0029094473148573237,0.00020093407383768989,-0.077370461321920381,0.083139114397081215,9.6583189613311333
1786618148.8060751,1786618148.8054655,vesc,0.00019234440404346486,0.00019234440404346486,nan,nan,0.01,1,0,1,0,0,1786618148.8054655,nan,-0.00016086117162459086,-0.00028633454996745305,0.00019234440404346486,-0.13856928675835878,0.064225563658208529,9.5665328744220233
1786618148.8258548,1786618148.825506,vesc,0.0012575316630191562,0.0012575316630191562,nan,nan,0.01,1,0,1,0,0,1786618148.825506,nan,-0.00017335514220734541,-0.0002891974481392882,0.0012575316630191562,-0.12493049121265098,0.078427829818878081,9.629005698568335
1786618148.8458295,1786618148.8454151,vesc,0.00021733189007890484,0.00021733189007890484,nan,nan,0.01,1,0,1,0,0,1786618148.8454151,nan,0.0019695210185193849,-0.00028640112899470504,0.00021733189007890484,-0.11602521793812581,0.03037281482944465,9.6864662892429578
1786618148.865952,1786618148.8656116,vesc,0.00020483814706118484,0.00020483814706118484,nan,nan,0.01,1,0,1,0,0,1786618148.8656116,nan,0.00090432992344739716,-0.00028636783948107899,0.00020483814706118484,-0.12380689385932175,0.11221545528052701,9.5333019770044984
1786618148.8856928,1786618148.8853929,vesc,-0.00087284285493222644,-0.00087284285493222644,nan,nan,0.01,1,0,1,0,0,1786618148.8853929,nan,-0.00014836720104183631,-0.00028347165179561784,-0.00087284285493222644,-0.091851950314487674,0.025633536705107929,9.6675751041049125
1786618148.9056227,1786618148.9053149,vesc,0.00018948118077872315,0.00018948118077872315,nan,nan,0.01,1,0,1,0,0,1786618148.9053149,nan,-0.00016086117162459086,-0.001351594824809945,0.00018948118077872315,-0.11495780867511041,0.097677741652546501,9.5956414846282314
1786618148.9258029,1786618148.92541,vesc,0.0012450379525107266,0.0012450379525107266,nan,nan,0.01,1,0,1,0,0,1786618148.92541,nan,-0.0012385462372793334,-0.00028916311832836143,0.0012450379525107266,-0.1106737180362396,0.073611587715223692,9.6387413130461255
1786618148.9456687,1786618148.9453394,vesc,-0.00086711640840274296,-0.00086711640840274296,nan,nan,0.01,1,0,1,0,0,1786618148.9453394,nan,-0.00014836720104183631,0.0018470499381866669,-0.00086711640840274296,-0.1337234065790982,0.0690283206201876,9.5618118323022827
1786618148.9655831,1786618148.9652753,vesc,-0.00086997969668606593,-0.00086997969668606593,nan,nan,0.01,1,0,1,0,0,1786618148.9652753,nan,-0.00014836720104183631,0.00078178966334417502,-0.00086997969668606593,-0.073423444407283434,0.082945827366401659,9.73021983639876
1786618148.9856234,1786618148.9852772,vesc,-0.001950524019472091,-0.001950524019472091,nan,nan,0.01,1,0,1,0,0,1786618148.9852772,nan,-0.0012010648456797202,-0.00028057442381285586,-0.001950524019472091,-0.082609603315728641,0.049506111250956053,9.6964895867431551
1786618149.0063934,1786618149.0052409,vesc,0.0012354074002484579,0.0012354074002484579,nan,nan,0.01,1,0,1,0,0,1786618149.0052409,nan,-0.0023037378524999718,0.0007761304460277566,0.0012354074002484579,-0.13856928675835878,0.10254574988948839,9.5666357854219086
1786618149.0256431,1786618149.025383,vesc,0.00020483814706118484,0.00020483814706118484,nan,nan,0.01,1,0,1,0,0,1786618149.025383,nan,0.00090432992344739716,-0.00028636783948107899,0.00020483814706118484,-0.11095460367015963,0.059177187083221838,9.6626505788717623
1786618149.0456319,1786618149.0453522,vesc,0.00018271388429048652,0.00018271388429048652,nan,nan,0.01,1,0,1,0,0,1786618149.0453522,nan,-0.0012260522666965789,0.00077896005468596581,0.00018271388429048652,-0.12966401348383361,0.059280792439995622,9.6241080705283366
1786618149.0657945,1786618149.0654242,vesc,-0.00088533669547781837,-0.00088533669547781837,nan,nan,0.01,1,0,1,0,0,1786618149.0654242,nan,-0.0012135582961138242,-0.00028343732198469102,-0.00088533669547781837,-0.082216350637455804,0.11186650439899104,9.6631300505757736
1786618149.0857852,1786618149.0854294,vesc,0.00017698743776100315,0.00017698743776100315,nan,nan,0.01,1,0,1,0,0,1786618149.0854294,nan,-0.0012260522666965789,-0.001351561535296319,0.00017698743776100315,-0.1621807557053323,0.083463671424773622,9.5375657668406575
1786618149.1056767,1786618149.1053984,vesc,0.0012546685047729958,0.0012546685047729958,nan,nan,0.01,1,0,1,0,0,1786618149.1053984,nan,-0.00017335514220734541,-0.0013544577229817802,0.0012546685047729958,-0.09173959240640972,0.063979468958908825,9.6580991060131964
1786618149.1257617,1786618149.1253788,vesc,0.00018948118077872315,0.00018948118077872315,nan,nan,0.01,1,0,1,0,0,1786618149.1253788,nan,-0.00016086117162459086,-0.001351594824809945,0.00018948118077872315,-0.15327549156708198,0.10246896863566768,9.5952052823218992
1786618149.1456351,1786618149.1452894,vesc,-0.00086997969668606593,-0.00086997969668606593,nan,nan,0.01,1,0,1,0,0,1786618149.1452894,nan,-0.00014836720104183631,0.00078178966334417502,-0.00086997969668606593,-0.13383576448717616,0.073792595592507837,9.5714047747120503
1786618149.1662664,1786618149.1654463,vesc,0.00018661795751398149,0.00018661795751398149,nan,nan,0.01,1,0,1,0,0,1786618149.1654463,nan,-0.00016086117162459086,-0.0024168550996524372,0.00018661795751398149,-0.12521137684657102,0.05920335337438587,9.6529032699621666
1786618149.1857173,1786618149.1854179,vesc,0.0012671622152814249,0.0012671622152814249,nan,nan,0.01,1,0,1,0,0,1786618149.1854179,nan,0.00089183595286464255,-0.0013544910124954062,0.0012671622152814249,-0.15795285315677532,0.045014608900491027,9.585415873457805
1786618149.2057474,1786618149.2054019,vesc,0.00017985066102574486,0.00017985066102574486,nan,nan,0.01,1,0,1,0,0,1786618149.2054019,nan,-0.0012260522666965789,-0.00028630022015652622,0.00017985066102574486,-0.087062239952991227,0.087903681730196581,9.6677984677523909
1786618149.2256525,1786618149.2253499,vesc,-0.00086034914442379708,-0.00086034914442379708,nan,nan,0.01,1,0,1,0,0,1786618149.2253499,nan,0.00091682389403015165,-0.00028350494130924384,-0.00086034914442379708,-0.14887904302013322,0.068848518731183361,9.62869930445504
1786618149.245626,1786618149.2452791,vesc,0.003387906050933376,0.003387906050933376,nan,nan,0.01,1,0,1,0,0,1786618149.2452791,nan,-0.00019834256322420413,-0.00029492324448295856,0.003387906050933376,-0.14792399166519576,0.069067387331436692,9.5472744841252961
1786618149.2657993,1786618149.2654459,vesc,-0.00087284285493222644,-0.00087284285493222644,nan,nan,0.01,1,0,1,0,0,1786618149.2654459,nan,-0.00014836720104183631,-0.00028347165179561784,-0.00087284285493222644,-0.10717613275391447,0.025415143191146683,9.7488315246166621
1786618149.2857301,1786618149.2854021,vesc,0.0012575316630191562,0.0012575316630191562,nan,nan,0.01,1,0,1,0,0,1786618149.2854021,nan,-0.00017335514220734541,-0.0002891974481392882,0.0012575316630191562,-0.13310542894839461,0.14581026879778847,9.5093319001334748
1786618149.3057253,1786618149.3054199,vesc,-0.0019312629149475528,-0.0019312629149475528,nan,nan,0.01,1,0,1,0,0,1786618149.3054199,nan,0.00092931734446425576,-0.0024111625928223929,-0.0019312629149475528,-0.13490315547764187,0.054387915262918085,9.6623570486334529
1786618149.3257341,1786618149.3254182,vesc,-0.00086321230266995738,-0.00086321230266995738,nan,nan,0.01,1,0,1,0,0,1786618149.3254182,nan,0.00091682389403015165,-0.0013487652161517359,-0.00086321230266995738,-0.16831876096376419,0.078364826067527815,9.6524483565649462
1786618149.3457575,1786618149.3453698,vesc,0.00021733189007890484,0.00021733189007890484,nan,nan,0.01,1,0,1,0,0,1786618149.3453698,nan,0.0019695210185193849,-0.00028640112899470504,0.00021733189007890484,-0.12053402439315253,0.10707768939242968,9.6626669510762895
1786618149.3656046,1786618149.3654168,vesc,0.00018375473424923978,0.00018375473424923978,nan,nan,0.01,1,0,1,0,0,1786618149.3654168,nan,-0.00016086117162459086,-0.00348211641479223,0.00018375473424923978,-0.15716632952767995,0.083515017289418125,9.5184629124869389
1786618149.3860347,1786618149.3855698,vesc,0.0012421747942645664,0.0012421747942645664,nan,nan,0.01,1,0,1,0,0,1786618149.3855698,nan,-0.0012385462372793334,-0.0013544244334681541,0.0012421747942645664,-0.17153546061216929,0.11704560279449971,9.5183845597938443
1786618149.4059098,1786618149.4055836,vesc,0.00021733189007890484,0.00021733189007890484,nan,nan,0.01,1,0,1,0,0,1786618149.4055836,nan,0.0019695210185193849,-0.00028640112899470504,0.00021733189007890484,-0.10165608685363647,0.02558233702086099,9.6866218251859664
1786618149.4258647,1786618149.4255714,vesc,0.0012421747942645664,0.0012421747942645664,nan,nan,0.01,1,0,1,0,0,1786618149.4255714,nan,-0.0012385462372793334,-0.0013544244334681541,0.0012421747942645664,-0.12436870167226122,0.083346580926324521,9.5811216780989525
