ros_time,msg_stamp,selected_mode,selected_wz,vesc_wz,livox_wz,livox_wz_raw,livox_bias_wz,vesc_weight,livox_weight,vesc_valid,livox_valid,fallback_used,vesc_header_stamp,livox_header_stamp,angular_velocity_x,angular_velocity_y,angular_velocity_z,linear_acceleration_x,linear_acceleration_y,linear_acceleration_z
1786618069.4650729,1786618069.4499156,vesc,0.00020770137032592652,0.00020770137032592652,nan,nan,0.01,1,0,1,0,0,1786618069.4499156,nan,0.00090432992344739716,0.00077889243536141293,0.00020770137032592652,-0.062439540697041274,0.088057426963334962,9.6106033406797451
1786618069.4753935,1786618069.4749849,vesc,0.00021733189007890484,0.00021733189007890484,nan,nan,0.01,1,0,1,0,0,1786618069.4749849,nan,0.0019695210185193849,-0.00028640112899470504,0.00021733189007890484,-0.073254907545166503,0.054244366112509823,9.7157737047898536
1786618069.5016992,1786618069.501014,vesc,-0.0019255363383809071,-0.0019255363383809071,nan,nan,0.01,1,0,1,0,0,1786618069.501014,nan,0.00092931734446425576,-0.00028064204313740869,-0.0019255363383809071,-0.099802172234075393,0.11222756998097516,9.5287937735436117
1786618069.5072622,1786618069.5063946,vesc,-0.0019562503359644118,-0.0019562503359644118,nan,nan,0.01,1,0,1,0,0,1786618069.5063946,nan,-0.0012010648456797202,-0.0024110960137951405,-0.0019562503359644118,-0.11005574040553601,0.054593152541098533,9.5860029339344237
1786618069.5293853,1786618069.5279541,vesc,0.00020197492379644315,0.00020197492379644315,nan,nan,0.01,1,0,1,0,0,1786618069.5279541,nan,0.00090432992344739716,-0.0013516281143235711,0.00020197492379644315,-0.057986913196053536,0.073609943185751092,9.6393587790454376
1786618069.5553725,1786618069.5542078,vesc,-0.00084889625136483023,-0.00084889625136483023,nan,nan,0.01,1,0,1,0,0,1786618069.5542078,nan,0.00091682389403015165,0.0039775371983580251,-0.00084889625136483023,-0.062832793375314111,0.097547330465369342,9.6441570044150922
1786618069.5762954,1786618069.5758533,vesc,0.0012671622152814249,0.0012671622152814249,nan,nan,0.01,1,0,1,0,0,1786618069.5758533,nan,0.00089183595286464255,-0.0013544910124954062,0.0012671622152814249,-0.090559843507866056,0.14089016552166456,9.5577211200568399
1786618069.5911872,1786618069.5899816,vesc,-0.0029974907963169631,-0.0029974907963169631,nan,nan,0.01,1,0,1,0,0,1786618069.5899816,nan,-0.00012337978002497762,0.0018527757345303372,-0.0029974907963169631,-0.039502219198535471,0.035134714370304465,9.6969573640153612
1786618069.6108375,1786618069.6100659,vesc,0.0012546685047729958,0.0012546685047729958,nan,nan,0.01,1,0,1,0,0,1786618069.6100659,nan,-0.00017335514220734541,-0.0013544577229817802,0.0012546685047729958,-0.090896898959550221,0.097702738500530018,9.5863432418999537
1786618069.631618,1786618069.6298947,vesc,0.00020483814706118484,0.00020483814706118484,nan,nan,0.01,1,0,1,0,0,1786618069.6298947,nan,0.00090432992344739716,-0.00028636783948107899,0.00020483814706118484,-0.091571064680567638,0.068808099851256799,9.6437430215291897
1786618069.6503806,1786618069.6500258,vesc,-0.00088819985372397866,-0.00088819985372397866,nan,nan,0.01,1,0,1,0,0,1786618069.6500258,nan,-0.0012135582961138242,-0.001348698637124484,-0.00088819985372397866,-0.063226055189861796,0.092667189255429605,9.6776720765254822
1786618069.6706617,1786618069.6701703,vesc,0.0012450379525107266,0.0012450379525107266,nan,nan,0.01,1,0,1,0,0,1786618069.6701703,nan,-0.0012385462372793334,-0.00028916311832836143,0.0012450379525107266,-0.113890399412095,0.078762254023406086,9.5045862997069435
1786618069.6918705,1786618069.6915753,vesc,-0.00085071859216152813,-0.00085071859216152813,nan,nan,0.01,1,0,1,0,0,1786618069.6915753,nan,0.0019820149891021394,-0.0013487985056653618,-0.00085071859216152813,-0.044348108514070894,0.068652125367055561,9.7017801476918066
1786618069.7102327,1786618069.7099497,vesc,0.00019520762730820652,0.00019520762730820652,nan,nan,0.01,1,0,1,0,0,1786618069.7099497,nan,-0.00016086117162459086,0.00077892676517233987,0.00019520762730820652,-0.085264513423743971,0.10268569934760663,9.5145674972526422
1786618069.7303431,1786618069.7300181,vesc,0.00019234440404346486,0.00019234440404346486,nan,nan,0.01,1,0,1,0,0,1786618069.7300181,nan,-0.00016086117162459086,-0.00028633454996745305,0.00019234440404346486,-0.091514876590253813,0.049660916291976775,9.6389015267618561
1786618069.7501981,1786618069.7499404,vesc,0.0012518052164896727,0.0012518052164896727,nan,nan,0.01,1,0,1,0,0,1786618069.7499404,nan,-0.00017335514220734541,-0.002419717997824272,0.0012518052164896727,-0.081879276913221943,0.049673451261067925,9.6342237540397946
1786618069.7706974,1786618069.7700675,vesc,-0.00087284285493222644,-0.00087284285493222644,nan,nan,0.01,1,0,1,0,0,1786618069.7700675,nan,-0.00014836720104183631,-0.00028347165179561784,-0.00087284285493222644,-0.053084844926479136,0.11195572925915442,9.6299389142263863
1786618069.7904463,1786618069.7900343,vesc,0.00017698743776100315,0.00017698743776100315,nan,nan,0.01,1,0,1,0,0,1786618069.7900343,nan,-0.0012260522666965789,-0.001351561535296319,0.00017698743776100315,-0.11450837704279859,0.083410681030656519,9.5572860871936882
1786618069.8103178,1786618069.8099442,vesc,-0.00086997969668606593,-0.00086997969668606593,nan,nan,0.01,1,0,1,0,0,1786618069.8099442,nan,-0.00014836720104183631,0.00078178966334417502,-0.00086997969668606593,-0.048856924105372457,0.097456753436528487,9.6778533402184621
1786618069.8303268,1786618069.8299603,vesc,-0.0019226731801347467,-0.0019226731801347467,nan,nan,0.01,1,0,1,0,0,1786618069.8299603,nan,0.00092931734446425576,0.00078461823170508345,-0.0019226731801347467,-0.11011192849584983,0.088110417357452064,9.5908830203267144
1786618069.850806,1786618069.8499718,vesc,-0.0008564450386910115,-0.0008564450386910115,nan,nan,0.01,1,0,1,0,0,1786618069.8499718,nan,0.0019820149891021394,-0.0034793200956476466,-0.0008564450386910115,-0.091851950314487674,0.092693867177985112,9.6677551983547119
1786618069.8685148,1786618069.8672945,vesc,-0.00087570614321554941,-0.00087570614321554941,nan,nan,0.01,1,0,1,0,0,1786618069.8672945,nan,-0.00014836720104183631,-0.0013487319266381099,-0.00087570614321554941,-0.076359240149218799,0.12169099655850069,9.5722070127338839
1786618069.8882594,1786618069.8874207,vesc,-0.0019255363383809071,-0.0019255363383809071,nan,nan,0.01,1,0,1,0,0,1786618069.8874207,nan,0.00092931734446425576,-0.00028064204313740869,-0.0019255363383809071,-0.10109429731324671,0.059241250642454446,9.6388149879664979
1786618069.9119995,1786618069.9110315,vesc,-0.00087284285493222644,-0.00087284285493222644,nan,nan,0.01,1,0,1,0,0,1786618069.9110315,nan,-0.00014836720104183631,-0.00028347165179561784,-0.00087284285493222644,-0.048744566197294503,0.09269247846420825,9.6682603978086945
1786618069.9311585,1786618069.9303772,vesc,0.00017022014127276652,0.00017022014127276652,nan,nan,0.01,1,0,1,0,0,1786618069.9303772,nan,-0.0022912438819172173,0.00077899334419959175,0.00017022014127276652,-0.1008695814970908,0.059292742687496514,9.6196560003401146
1786618069.9506764,1786618069.9499376,vesc,0.00018948118077872315,0.00018948118077872315,nan,nan,0.01,1,0,1,0,0,1786618069.9499376,nan,-0.00016086117162459086,-0.001351594824809945,0.00018948118077872315,-0.11946663340268682,0.073792157051315144,9.5715731745300445
1786618069.9708121,1786618069.9699478,vesc,0.00018948118077872315,0.00018948118077872315,nan,nan,0.01,1,0,1,0,0,1786618069.9699478,nan,-0.00016086117162459086,-0.001351594824809945,0.00018948118077872315,-0.063844023684290541,0.058995448303949871,9.7302677835691611
1786618069.9908078,1786618069.9899919,vesc,-0.001929440574150855,-0.001929440574150855,nan,nan,0.01,1,0,1,0,0,1786618069.9899919,nan,-0.00013587375060773214,0.0029151731112009938,-0.001929440574150855,-0.10926923504899033,0.12183366862652356,9.5191271562134716
1786618070.0108871,1786618070.0100894,vesc,-0.00088533669547781837,-0.00088533669547781837,nan,nan,0.01,1,0,1,0,0,1786618070.0100894,nan,-0.0012135582961138242,-0.00028343732198469102,-0.00088533669547781837,-0.072636929914462911,0.059175981094941932,9.6631008144962607
1786618070.0308056,1786618070.030025,vesc,0.00020770137032592652,0.00020770137032592652,nan,nan,0.01,1,0,1,0,0,1786618070.030025,nan,0.00090432992344739716,0.00077889243536141293,0.00020770137032592652,-0.086275734596445552,0.097663945877526359,9.6007683235316108
1786618070.050751,1786618070.0500054,vesc,-0.0029725033753001044,-0.0029725033753001044,nan,nan,0.01,1,0,1,0,0,1786618070.0500054,nan,0.0020070024101189981,0.0018527081152057846,-0.0029725033753001044,-0.07686485073556959,0.073674920372468478,9.6151852190610043
1786618070.0707514,1786618070.0699875,vesc,-0.00087284285493222644,-0.00087284285493222644,nan,nan,0.01,1,0,1,0,0,1786618070.0699875,nan,-0.00014836720104183631,-0.00028347165179561784,-0.00087284285493222644,-0.058155450058170466,0.083151393550476627,9.6537534551544013
1786618070.09058,1786618070.0899944,vesc,-0.0019562503359644118,-0.0019562503359644118,nan,nan,0.01,1,0,1,0,0,1786618070.0899944,nan,-0.0012010648456797202,-0.0024110960137951405,-0.0019562503359644118,-0.13310542894839461,0.12665018481842338,9.5092804446335322
1786618070.1106331,1786618070.1099582,vesc,-0.00088533669547781837,-0.00088533669547781837,nan,nan,0.01,1,0,1,0,0,1786618070.1099582,nan,-0.0012135582961138242,-0.00028343732198469102,-0.00088533669547781837,-0.025413982884241015,0.044649888808567795,9.7210993490339206
1786618070.1322114,1786618070.1310167,vesc,0.00019520762730820652,0.00019520762730820652,nan,nan,0.01,1,0,1,0,0,1786618070.1310167,nan,-0.00016086117162459086,0.00077892676517233987,0.00019520762730820652,-0.10042014986477898,0.064185729499872224,9.5813508889623336
1786618070.1511135,1786618070.1501014,vesc,0.0012546685047729958,0.0012546685047729958,nan,nan,0.01,1,0,1,0,0,1786618070.1501014,nan,-0.00017335514220734541,-0.0013544577229817802,0.0012546685047729958,-0.10058867759062107,0.073727179864597758,9.5957455650712973
1786618070.170217,1786618070.1698902,vesc,-0.00089106301197013917,-0.00089106301197013917,nan,nan,0.01,1,0,1,0,0,1786618070.1698902,nan,-0.0012135582961138242,-0.0024139589119669758,-0.00089106301197013917,-0.072187498282151097,0.035328841938270017,9.6247185198685656
1786618070.1865666,1786618070.1854415,vesc,-0.001940893467209822,-0.001940893467209822,nan,nan,0.01,1,0,1,0,0,1786618070.1854415,nan,-0.00013587375060773214,-0.0013458690284662747,-0.001940893467209822,-0.062945160419666912,0.10231160543768958,9.6537487773816792
1786618070.2114694,1786618070.209795,vesc,-0.00086321230266995738,-0.00086321230266995738,nan,nan,0.01,1,0,1,0,0,1786618070.209795,nan,0.00091682389403015165,-0.0013487652161517359,-0.00086321230266995738,-0.10994338249745805,0.073778964270434955,9.576475480342765
1786618070.2316818,1786618070.2310638,vesc,0.00020483814706118484,0.00020483814706118484,nan,nan,0.01,1,0,1,0,0,1786618070.2310638,nan,0.00090432992344739716,-0.00028636783948107899,0.00020483814706118484,-0.072524572006384957,0.063991748112304236,9.6535335998364644
1786618070.2503593,1786618070.2500691,vesc,0.0012603948212653164,0.0012603948212653164,nan,nan,0.01,1,0,1,0,0,1786618070.2500691,nan,-0.00017335514220734541,0.00077606386700050461,0.0012603948212653164,-0.076640134919413683,0.083306454407193087,9.5960531286277728
1786618070.2702665,1786618070.2699673,vesc,0.00018948118077872315,0.00018948118077872315,nan,nan,0.01,1,0,1,0,0,1786618070.2699673,nan,-0.00016086117162459086,-0.001351594824809945,0.00018948118077872315,-0.077763714000193218,0.063888910202617666,9.6917954418165664
1786618070.2902639,1786618070.2898874,vesc,0.00015772639825504655,0.00015772639825504655,nan,nan,0.01,1,0,1,0,0,1786618070.2898874,nan,-0.0033564354971378557,0.0007790266337132178,0.00015772639825504655,-0.081317487372832176,0.10728246985686773,9.5864812361952545
1786618070.31022,1786618070.3099382,vesc,-0.0029964499788675005,-0.0029964499788675005,nan,nan,0.01,1,0,1,0,0,1786618070.3099382,nan,0.00094181131504701037,-0.0024082996946505576,-0.0029964499788675005,-0.096192229043672306,0.068846874201710762,9.6293167704543521
1786618070.330497,1786618070.3302174,vesc,-0.0019226731801347467,-0.0019226731801347467,nan,nan,0.01,1,0,1,0,0,1786618070.3302174,nan,0.00092931734446425576,0.00078461823170508345,-0.0019226731801347467,-0.091177802866019952,0.068898220066355265,9.610215085543814
1786618070.3502967,1786618070.3499739,vesc,0.0012450379525107266,0.0012450379525107266,nan,nan,0.01,1,0,1,0,0,1786618070.3499739,nan,-0.0012385462372793334,-0.00028916311832836143,0.0012450379525107266,-0.063057509191470018,0.063965691456438378,9.6632259449165758
1786618070.3706067,1786618070.3703446,vesc,-0.00087284285493222644,-0.00087284285493222644,nan,nan,0.01,1,0,1,0,0,1786618070.3703446,nan,-0.00014836720104183631,-0.00028347165179561784,-0.00087284285493222644,-0.10487278650204157,0.09300325798943021,9.5526340422215981
1786618070.3901832,1786618070.3899174,vesc,-0.0019255363383809071,-0.0019255363383809071,nan,nan,0.01,1,0,1,0,0,1786618070.3899174,nan,0.00092931734446425576,-0.00028064204313740869,-0.0019255363383809071,-0.049474892599801201,0.058994973217657787,9.7304373528303358
1786618070.4107106,1786618070.4099598,vesc,0.0012575316630191562,0.0012575316630191562,nan,nan,0.01,1,0,1,0,0,1786618070.4099598,nan,-0.00017335514220734541,-0.0002891974481392882,0.0012575316630191562,-0.10943776277483241,0.093054932759969233,9.53341892132255
1786618070.4302425,1786618070.4299569,vesc,0.00019520762730820652,0.00019520762730820652,nan,nan,0.01,1,0,1,0,0,1786618070.4299569,nan,-0.00016086117162459086,0.00077892676517233987,0.00019520762730820652,-0.048519850381138596,0.064003844540202692,9.6490253963755777
1786618070.450398,1786618070.4499929,vesc,-0.00089783040598624762,-0.00089783040598624762,nan,nan,0.01,1,0,1,0,0,1786618070.4499929,nan,-0.0022787488710371622,-0.00028340403247106507,-0.00089783040598624762,-0.067566324782771581,0.073610235546546221,9.6392465125001081
1786618070.4701874,1786618070.4698932,vesc,0.00019234440404346486,0.00019234440404346486,nan,nan,0.01,1,0,1,0,0,1786618070.4698932,nan,-0.00016086117162459086,-0.00028633454996745305,0.00019234440404346486,-0.10013924595830925,0.073830163954681893,9.5574287592617111
1786618070.4933672,1786618070.4932256,vesc,0.00018948118077872315,0.00018948118077872315,nan,nan,0.01,1,0,1,0,0,1786618070.4932256,nan,-0.00016086117162459086,-0.001351594824809945,0.00018948118077872315,-0.053421918650712996,0.092718388939676544,9.6586253554444284
1786618070.5115106,1786618070.5109899,vesc,0.0012671622152814249,0.0012671622152814249,nan,nan,0.01,1,0,1,0,0,1786618070.5109899,nan,0.00089183595286464255,-0.0013544910124954062,0.0012671622152814249,-0.13299307104031666,0.08356574188737298,9.4995845912238792
1786618070.5300956,1786618070.5298209,vesc,0.00022019511334364655,0.00022019511334364655,nan,nan,0.01,1,0,1,0,0,1786618070.5298209,nan,0.0019695210185193849,0.00077885914584778699,0.00022019511334364655,-0.048744566197294503,0.054372310505478083,9.6681574868088092
1786618070.5548964,1786618070.5545688,vesc,-0.00088819985372397866,-0.00088819985372397866,nan,nan,0.01,1,0,1,0,0,1786618070.5545688,nan,-0.0012135582961138242,-0.001348698637124484,-0.00088819985372397866,-0.087511671585303041,0.08301065837272148,9.706103579130172
1786618070.5709174,1786618070.5706489,vesc,-0.0019380303089636616,-0.0019380303089636616,nan,nan,0.01,1,0,1,0,0,1786618070.5706489,nan,-0.00013587375060773214,-0.00028060875362378264,-0.0019380303089636616,-0.076190703287101869,0.088199477764668188,9.5577480172499918
1786618070.6019759,1786618070.6015637,vesc,0.00016449369474328318,0.00016449369474328318,nan,nan,0.01,1,0,1,0,0,1786618070.6015637,nan,-0.0022912428416199163,-0.0013515272054853921,0.00016449369474328318,-0.039726935014691378,0.035083222325262398,9.7161151821985641
1786618070.6073956,1786618070.6068842,vesc,0.00020197492379644315,0.00020197492379644315,nan,nan,0.01,1,0,1,0,0,1786618070.6068842,nan,0.00090432992344739716,-0.0013516281143235711,0.00020197492379644315,-0.053141023880518112,0.11194284711161906,9.6347289534937772
1786618070.6303999,1786618070.6300039,vesc,-0.00087570614321554941,-0.00087570614321554941,nan,nan,0.01,1,0,1,0,0,1786618070.6300039,nan,-0.00014836720104183631,-0.0013487319266381099,-0.00087570614321554941,-0.10543457604243134,0.092874546149374737,9.6005309265659662
1786618070.6503096,1786618070.6499417,vesc,0.00021733189007890484,0.00021733189007890484,nan,nan,0.01,1,0,1,0,0,1786618070.6499417,nan,0.0019695210185193849,-0.00028640112899470504,0.00021733189007890484,-0.096360775042064084,0.083178327288727871,9.643725479881482
1786618070.6703911,1786618070.6700094,vesc,-0.00086711640840274296,-0.00086711640840274296,nan,nan,0.01,1,0,1,0,0,1786618070.6700094,nan,-0.00014836720104183631,0.0018470499381866669,-0.00086711640840274296,-0.099970718232467171,0.097818897098944646,9.5431241302776471
1786618070.690243,1786618070.6899376,vesc,0.0012364482176979203,0.0012364482176979203,nan,nan,0.01,1,0,1,0,0,1786618070.6899376,nan,-0.0012385462372793334,-0.0034849449831531381,0.0012364482176979203,-0.06350694996005668,0.030332542129915652,9.7014527036012623
1786618070.7101686,1786618070.7098975,vesc,0.00018661795751398149,0.00018661795751398149,nan,nan,0.01,1,0,1,0,0,1786618070.7098975,nan,-0.00016086117162459086,-0.0024168550996524372,0.00018661795751398149,-0.067116893150459767,0.12161346613014246,9.6010583454403786
1786618070.730299,1786618070.7299881,vesc,0.00020770137032592652,0.00020770137032592652,nan,nan,0.01,1,0,1,0,0,1786618070.7299881,nan,0.00090432992344739716,0.00077889243536141293,0.00020770137032592652,-0.096192229043672306,0.073636913469101728,9.6293296343293378
1786618070.7504277,1786618070.7500663,vesc,0.00017698743776100315,0.00017698743776100315,nan,nan,0.01,1,0,1,0,0,1786618070.7500663,nan,-0.0012260522666965789,-0.001351561535296319,0.00017698743776100315,-0.091346330591862035,0.064069589174007291,9.6245711700278207
1786618070.7701333,1786618070.7698586,vesc,0.0012296809537189744,0.0012296809537189744,nan,nan,0.01,1,0,1,0,0,1786618070.7698586,nan,-0.0023037368122026708,-0.0013543901036572276,0.0012296809537189744,-0.05877341855259921,0.078219742022945127,9.7064275148911747
1786618070.79004,1786618070.7898047,vesc,0.00018271388429048652,0.00018271388429048652,nan,nan,0.01,1,0,1,0,0,1786618070.7898047,nan,-0.0012260522666965789,0.00077896005468596581,0.00018271388429048652,-0.13299307104031666,0.10751586513412903,9.4996489105988076
1786618070.8101261,1786618070.8098543,vesc,-0.00087284285493222644,-0.00087284285493222644,nan,nan,0.01,1,0,1,0,0,1786618070.8098543,nan,-0.00014836720104183631,-0.00028347165179561784,-0.00087284285493222644,-0.039558398152574448,0.03991181667251098,9.7017590977145574
1786618070.8301528,1786618070.8298171,vesc,0.00016735691800802484,0.00016735691800802484,nan,nan,0.01,1,0,1,0,0,1786618070.8298171,nan,-0.0022912428416199163,-0.00028626693064290023,0.00016735691800802484,-0.11484545076703245,0.10249350866990881,9.5860754394116157
1786618070.8501956,1786618070.8498685,vesc,0.00020483814706118484,0.00020483814706118484,nan,nan,0.01,1,0,1,0,0,1786618070.8498685,nan,0.00090432992344739716,-0.00028636783948107899,0.00020483814706118484,-0.091514876590253813,0.083191044983315976,9.6389915738867558
1786618070.8701527,1786618070.8698494,vesc,0.00020483814706118484,0.00020483814706118484,nan,nan,0.01,1,0,1,0,0,1786618070.8698494,nan,0.00090432992344739716,-0.00028636783948107899,0.00020483814706118484,-0.07720192445980345,0.097547787279111731,9.6439886045970979
1786618070.8901477,1786618070.889879,vesc,0.0012614357687519416,0.0012614357687519416,nan,nan,0.01,1,0,1,0,0,1786618070.889879,nan,0.00089183595286464255,-0.003485012602477691,0.0012614357687519416,-0.11394658750240882,0.097909455855235805,9.5094277944742771
1786618070.9101477,1786618070.9099014,vesc,0.0012728886618109084,0.0012728886618109084,nan,nan,0.01,1,0,1,0,0,1786618070.9099014,nan,0.00089183595286464255,0.00077602953718957789,0.0012728886618109084,-0.063731665776212587,0.054231136786530243,9.720676010602574
1786618070.9301255,1786618070.9298854,vesc,0.00020197492379644315,0.00020197492379644315,nan,nan,0.01,1,0,1,0,0,1786618070.9298854,nan,0.00090432992344739716,-0.0013516281143235711,0.00020197492379644315,-0.12854043440305407,0.078698336644571043,9.5283657573395431
1786618070.9501262,1786618070.9498727,vesc,-0.00086034914442379708,-0.00086034914442379708,nan,nan,0.01,1,0,1,0,0,1786618070.9498727,nan,0.00091682389403015165,-0.00028350494130924384,-0.00086034914442379708,-0.062383361743002297,0.083280251570929664,9.6058004375373685
1786618070.9702404,1786618070.9699173,vesc,0.00021056459359066821,0.00021056459359066821,nan,nan,0.01,1,0,1,0,0,1786618070.9699173,nan,0.00090432992344739716,0.001844153750501206,0.00021056459359066821,-0.10143137103748057,0.059163994302341649,9.6675528846844827
1786618070.9906824,1786618070.9901834,vesc,-0.00086997969668606593,-0.00086997969668606593,nan,nan,0.01,1,0,1,0,0,1786618070.9901834,nan,-0.00014836720104183631,0.00078178966334417502,-0.00086997969668606593,-0.076696313873452659,0.1359838214754614,9.6009835010768256
1786618071.0101659,1786618071.0099125,vesc,0.0034071671554579135,0.0034071671554579135,nan,nan,0.01,1,0,1,0,0,1786618071.0099125,nan,0.0019320396269197719,-0.0024255114134924954,0.0034071671554579135,-0.11033664431200574,0.059318799343362372,9.6099636552600032
1786618071.0302434,1786618071.0299013,vesc,0.0012575316630191562,0.0012575316630191562,nan,nan,0.01,1,0,1,0,0,1786618071.0299013,nan,-0.00017335514220734541,-0.0002891974481392882,0.0012575316630191562,-0.07720192445980345,0.083177742567137614,9.6439500129721409
1786618071.0501115,1786618071.0498612,vesc,0.00020770137032592652,0.00020770137032592652,nan,nan,0.01,1,0,1,0,0,1786618071.0498612,nan,0.00090432992344739716,0.00077889243536141293,0.00020770137032592652,-0.081879276913221943,0.059253493250750466,9.6342494817897659
1786618071.0703452,1786618071.0699961,vesc,0.00018375473424923978,0.00018375473424923978,nan,nan,0.01,1,0,1,0,0,1786618071.0699961,nan,-0.00016086117162459086,-0.00348211641479223,0.00018375473424923978,-0.063282225007625925,0.044754078886931836,9.682332307599836
1786618071.0903001,1786618071.0899546,vesc,0.00017985066102574486,0.00017985066102574486,nan,nan,0.01,1,0,1,0,0,1786618071.0899546,nan,-0.0012260522666965789,-0.00028630022015652622,0.00017985066102574486,-0.10008307614054512,0.10737319306610615,9.5527287671192198
1786618071.1101375,1786618071.1098349,vesc,-0.00087284285493222644,-0.00087284285493222644,nan,nan,0.01,1,0,1,0,0,1786618071.1098349,nan,-0.00014836720104183631,-0.00028347165179561784,-0.00087284285493222644,-0.068184302413475173,0.035148455327675521,9.6918305251119818
1786618071.1302178,1786618071.1299012,vesc,0.0012825190840360147,0.0012825190840360147,nan,nan,0.01,1,0,1,0,0,1786618071.1299012,nan,0.0019570270479366309,-0.00028926402716654019,0.0012825190840360147,-0.10554693395050929,0.097638802849145279,9.6101238689757338
1786618071.1502459,1786618071.1498969,vesc,0.0023102251464678365,0.0023102251464678365,nan,nan,0.01,1,0,1,0,0,1786618071.1498969,nan,-0.0012510396877134374,-0.00029202601650019658,0.0023102251464678365,-0.081710740051105013,0.092822286657245456,9.6199705805556732
1786618071.1703203,1786618071.1699927,vesc,-0.00084785543391536762,-0.00084785543391536762,nan,nan,0.01,1,0,1,0,0,1786618071.1699927,nan,0.0019820149891021394,-0.00028353823082286983,-0.00084785543391536762,-0.090672183143394314,0.10733427253525463,9.5672099820235417
1786618071.190192,1786618071.1898868,vesc,0.0012239545071894911,0.0012239545071894911,nan,nan,0.01,1,0,1,0,0,1786618071.1898868,nan,-0.0023037368122026708,-0.0034849116936395124,0.0012239545071894911,-0.059054313322794094,0.07815538610291739,9.730376541784949
1786618071.210623,1786618071.2099302,vesc,0.00019234440404346486,0.00019234440404346486,nan,nan,0.01,1,0,1,0,0,1786618071.2099302,nan,-0.00016086117162459086,-0.00028633454996745305,0.00019234440404346486,-0.14234777594715364,0.12193773079703973,9.4804162480520517
1786618071.2308674,1786618071.2303994,vesc,-0.00085071859216152813,-0.00085071859216152813,nan,nan,0.01,1,0,1,0,0,1786618071.2303994,nan,0.0019820149891021394,-0.0013487985056653618,-0.00085071859216152813,-0.053758992374946857,0.049530961918542005,9.6872474772875421
1786618071.561837,1786618071.52985,vesc,0.0012546685047729958,0.0012546685047729958,nan,nan,0.01,1,0,1,0,0,1786618071.52985,nan,-0.00017335514220734541,-0.0013544577229817802,0.0012546685047729958,-0.072356035144268027,0.054450334292678093,9.6391389237275007
1786618071.5697217,1786618071.5694885,vesc,0.00019234440404346486,0.00019234440404346486,nan,nan,0.01,1,0,1,0,0,1786618071.5694885,nan,-0.00016086117162459086,-0.00028633454996745305,0.00019234440404346486,-0.063057509191470018,0.07354573344612092,9.6632516726665472
1786618071.5902739,1786618071.589886,vesc,0.00019234440404346486,0.00019234440404346486,nan,nan,0.01,1,0,1,0,0,1786618071.589886,nan,-0.00016086117162459086,-0.00028633454996745305,0.00019234440404346486,-0.1377827814018131,0.097935969324844052,9.4995670495761715
1786618071.6101937,1786618071.6098547,vesc,0.00019911170053170147,0.00019911170053170147,nan,nan,0.01,1,0,1,0,0,1786618071.6098547,nan,0.00090432992344739716,-0.0024168883891660629,0.00019911170053170147,-0.020680460613058393,0.092537125246696661,9.726074160323833
1786618071.6303258,1786618071.6298125,vesc,0.0012479011107568872,0.0012479011107568872,nan,nan,0.01,1,0,1,0,0,1786618071.6298125,nan,-0.0012385462372793334,0.00077609715651413066,0.0012479011107568872,-0.11901718349782531,0.08347518313108182,9.5332809270272492
1786618071.65009,1786618071.649802,vesc,-0.00087856930146170981,-0.00087856930146170981,nan,nan,0.01,1,0,1,0,0,1786618071.649802,nan,-0.00014836720104183631,-0.002413992201480602,-0.00087856930146170981,-0.10058867759062107,0.092887263843962842,9.5957981900144205
1786618071.6701496,1786618071.669806,vesc,0.00021733189007890484,0.00021733189007890484,nan,nan,0.01,1,0,1,0,0,1786618071.669806,nan,0.0019695210185193849,-0.00028640112899470504,0.00021733189007890484,-0.081654561097066036,0.073675066552866042,9.6151290857883396
1786618071.6900761,1786618071.6898293,vesc,0.00018948118077872315,0.00018948118077872315,nan,nan,0.01,1,0,1,0,0,1786618071.6898293,nan,-0.00016086117162459086,-0.001351594824809945,0.00018948118077872315,-0.11467692304119037,0.064211968881235038,9.5716035800527379
1786618071.7103775,1786618071.710027,vesc,0.0023352125674846952,0.0023352125674846952,nan,nan,0.01,1,0,1,0,0,1786618071.710027,nan,0.00087934250243053844,-0.0002920936358247494,0.0023352125674846952,-0.044011034789837034,0.059149303172386425,9.6730165232238505
1786618071.7302184,1786618071.7299128,vesc,-0.00089783040598624762,-0.00089783040598624762,nan,nan,0.01,1,0,1,0,0,1786618071.7299128,nan,-0.0022787488710371622,-0.00028340403247106507,-0.00089783040598624762,-0.1000268880502313,0.078645930972044198,9.5478615446019148
1786618071.7501769,1786618071.7498801,vesc,-0.0019380303089636616,-0.0019380303089636616,nan,nan,0.01,1,0,1,0,0,1786618071.7498801,nan,-0.00013587375060773214,-0.00028060875362378264,-0.0019380303089636616,-0.029417187889191787,0.054410317408844833,9.6540130715404757
1786618071.7701795,1786618071.7698412,vesc,0.00017022014127276652,0.00017022014127276652,nan,nan,0.01,1,0,1,0,0,1786618071.7698412,nan,-0.0022912438819172173,0.00077899334419959175,0.00017022014127276652,-0.068296660321553126,0.097393000510640704,9.701576664578397
1786618071.7901652,1786618071.7898636,vesc,0.00019234440404346486,0.00019234440404346486,nan,nan,0.01,1,0,1,0,0,1786618071.7898636,nan,-0.00016086117162459086,-0.00028633454996745305,0.00019234440404346486,-0.100026906322781,0.12175611992561564,9.5479784889199664
1786618071.810241,1786618071.8099496,vesc,0.00017412421449626149,0.00017412421449626149,nan,nan,0.01,1,0,1,0,0,1786618071.8099496,nan,-0.0012260522666965789,-0.0024168218101388111,0.00017412421449626149,-0.05843634482836535,0.044766833126619332,9.6775995710482903
1786618071.8301694,1786618071.8298941,vesc,0.00017022014127276652,0.00017022014127276652,nan,nan,0.01,1,0,1,0,0,1786618071.8298941,nan,-0.0022912438819172173,0.00077899334419959175,0.00017022014127276652,-0.043168350479252382,0.10724263569853143,9.6013004201787453
1786618071.8505685,1786618071.8502517,vesc,0.00019520762730820652,0.00019520762730820652,nan,nan,0.01,1,0,1,0,0,1786618071.8502517,nan,-0.00016086117162459086,0.00077892676517233987,0.00019520762730820652,-0.086781354319071191,0.054437908958885117,9.6437605631768974
1786618071.8703585,1786618071.8698478,vesc,-0.00087856930146170981,-0.00087856930146170981,nan,nan,0.01,1,0,1,0,0,1786618071.8698478,nan,-0.00014836720104183631,-0.002413992201480602,-0.00087856930146170981,-0.058380165874326373,0.083099901505434559,9.6729124427807847
1786618071.8901703,1786618071.8898692,vesc,0.0012546685047729958,0.0012546685047729958,nan,nan,0.01,1,0,1,0,0,1786618071.8898692,nan,-0.00017335514220734541,-0.0013544577229817802,0.0012546685047729958,-0.10915687714091238,0.09311928867999697,9.5094710638719562
1786618071.9101849,1786618071.9099333,vesc,0.00018661795751398149,0.00018661795751398149,nan,nan,0.01,1,0,1,0,0,1786618071.9099333,nan,-0.00016086117162459086,-0.0024168550996524372,0.00018661795751398149,-0.044853719100421685,0.054166196144912249,9.7448495705870073
1786618071.9303772,1786618071.9300232,vesc,0.0012296809537189744,0.0012296809537189744,nan,nan,0.01,1,0,1,0,0,1786618071.9300232,nan,-0.0023037368122026708,-0.0013543901036572276,0.0012296809537189744,-0.095405723687126631,0.13608742683223518,9.5624421621765805
1786618071.95067,1786618071.9503014,vesc,0.00021446866681416318,0.00021446866681416318,nan,nan,0.01,1,0,1,0,0,1786618071.9503014,nan,0.0019695210185193849,-0.0013516614038371971,0.00021446866681416318,-0.081823097959182967,0.059266357125736135,9.6294606119655555
1786618071.9701295,1786618071.9698329,vesc,0.0023044988299755161,0.0023044988299755161,nan,nan,0.01,1,0,1,0,0,1786618071.9698329,nan,-0.0012510396877134374,-0.0024225476064824816,0.0023044988299755161,-0.081542203188988083,0.073700830847936771,9.6055501766967382
1786618071.990078,1786618071.9898312,vesc,-0.0029600099248660002,-0.0029600099248660002,nan,nan,0.01,1,0,1,0,0,1786618071.9898312,nan,0.003072193765265312,0.0018526748256921586,-0.0029600099248660002,-0.039108966520262634,0.08312504453381564,9.6635580667798422
1786618072.0100656,1786618072.0098279,vesc,0.0012671622152814249,0.0012671622152814249,nan,nan,0.01,1,0,1,0,0,1786618072.0098279,nan,0.00089183595286464255,-0.0013544910124954062,0.0012671622152814249,-0.13282454331447457,0.12192453801615954,9.4853185538647722
1786618072.0304887,1786618072.0300684,vesc,-0.0019351668906431761,-0.0019351668906431761,nan,nan,0.01,1,0,1,0,0,1786618072.0300684,nan,-0.00013587375060773214,0.00078465256151601006,-0.0019351668906431761,-0.05387135028302481,0.063875278880544784,9.696866147447281
1786618072.0503323,1786618072.0500128,vesc,-0.00089783040598624762,-0.00089783040598624762,nan,nan,0.01,1,0,1,0,0,1786618072.0500128,nan,-0.0022787488710371622,-0.00028340403247106507,-0.00089783040598624762,-0.091964308222565627,0.054347934924184216,9.6772311964464279
1786618072.0704305,1786618072.0701406,vesc,0.00016449369474328318,0.00016449369474328318,nan,nan,0.01,1,0,1,0,0,1786618072.0701406,nan,-0.0022912428416199163,-0.0013515272054853921,0.00016449369474328318,-0.086781354319071191,0.064017950948567659,9.6437862909268688
1786618072.0903513,1786618072.0900347,vesc,-0.00086321230266995738,-0.00086321230266995738,nan,nan,0.01,1,0,1,0,0,1786618072.0900347,nan,0.00091682389403015165,-0.0013487652161517359,-0.00086321230266995738,-0.06215864592684639,0.11207188785756905,9.5867186331608991
1786618072.1101282,1786618072.109875,vesc,0.00017698743776100315,0.00017698743776100315,nan,nan,0.01,1,0,1,0,0,1786618072.109875,nan,-0.0012260522666965789,-0.001351561535296319,0.00017698743776100315,-0.1147330928589545,0.078569149718223485,9.5764322109450859
1786618072.130193,1786618072.1298864,vesc,0.00017022014127276652,0.00017022014127276652,nan,nan,0.01,1,0,1,0,0,1786618072.1298864,nan,-0.0022912438819172173,0.00077899334419959175,0.00017022014127276652,-0.05370281342090788,0.087863993752257841,9.682561518463217
1786618072.1501858,1786618072.1498468,vesc,0.00016735691800802484,0.00016735691800802484,nan,nan,0.01,1,0,1,0,0,1786618072.1498468,nan,-0.0022912428416199163,-0.00028626693064290023,0.00016735691800802484,-0.11478928094926832,0.083346288565529392,9.581233944644282
1786618072.1702726,1786618072.1699393,vesc,-0.00086321230266995738,-0.00086321230266995738,nan,nan,0.01,1,0,1,0,0,1786618072.1699393,nan,0.00091682389403015165,-0.0013487652161517359,-0.00086321230266995738,-0.095798967229124621,0.078517036406491769,9.5958157316621282
1786618072.1902654,1786618072.1899259,vesc,0.00016449369474328318,0.00016449369474328318,nan,nan,0.01,1,0,1,0,0,1786618072.1899259,nan,-0.0022912428416199163,-0.0013515272054853921,0.00016449369474328318,-0.077763714000193218,0.049518828945544158,9.6917568501916094
1786618072.2106371,1786618072.2102971,vesc,-0.0019283997567013926,-0.0019283997567013926,nan,nan,0.01,1,0,1,0,0,1786618072.2102971,nan,0.00092931734446425576,-0.0013459023179799006,-0.0019283997567013926,-0.085713945056055785,0.097792694262681223,9.5528714391872427
1786618072.2303557,1786618072.2300606,vesc,0.00018271388429048652,0.00018271388429048652,nan,nan,0.01,1,0,1,0,0,1786618072.2300606,nan,-0.0012260522666965789,0.00077896005468596581,0.00018271388429048652,-0.091571064680567638,0.059228094406673648,9.6437172937792184
1786618072.2503474,1786618072.2500679,vesc,0.0012575316630191562,0.0012575316630191562,nan,nan,0.01,1,0,1,0,0,1786618072.2500679,nan,-0.00017335514220734541,-0.0002891974481392882,0.0012575316630191562,-0.081710740051105013,0.078452205400171948,9.6199319889307162
1786618072.2703848,1786618072.2700276,vesc,-0.00087856930146170981,-0.00087856930146170981,nan,nan,0.01,1,0,1,0,0,1786618072.2700276,nan,-0.00014836720104183631,-0.002413992201480602,-0.00087856930146170981,-0.081542203188988083,0.078490833570228347,9.6055630405717238
1786618072.2903924,1786618072.2900183,vesc,0.0012575316630191562,0.0012575316630191562,nan,nan,0.01,1,0,1,0,0,1786618072.2900183,nan,-0.00017335514220734541,-0.0002891974481392882,0.0012575316630191562,-0.039839292922769332,0.073377625988921835,9.7257981717332314
1786618072.3104579,1786618072.3099813,vesc,-0.0008824734071944954,-0.0008824734071944954,nan,nan,0.01,1,0,1,0,0,1786618072.3099813,nan,-0.0012135582961138242,0.00078182295285780096,-0.0008824734071944954,-0.13282454331447457,0.12192453801615954,9.4853185538647722
1786618072.3302412,1786618072.3299148,vesc,-0.00086321230266995738,-0.00086321230266995738,nan,nan,0.01,1,0,1,0,0,1786618072.3299148,nan,0.00091682389403015165,-0.0013487652161517359,-0.00086321230266995738,-0.058661060644521257,0.059085422338650773,9.6967971502996306
1786618072.3503253,1786618072.3499751,vesc,0.0012479011107568872,0.0012479011107568872,nan,nan,0.01,1,0,1,0,0,1786618072.3499751,nan,-0.0012385462372793334,0.00077609715651413066,0.0012479011107568872,-0.095967513227516399,0.09763851048835015,9.6102361355210633
1786618072.3702266,1786618072.3699563,vesc,-0.00086997969668606593,-0.00086997969668606593,nan,nan,0.01,1,0,1,0,0,1786618072.3699563,nan,-0.00014836720104183631,0.00078178966334417502,-0.00086997969668606593,-0.06739778792065465,0.073648863716602619,9.6248775641411157
1786618072.3903046,1786618072.3899941,vesc,-0.00087570614321554941,-0.00087570614321554941,nan,nan,0.01,1,0,1,0,0,1786618072.3899941,nan,-0.00014836720104183631,-0.0013487319266381099,-0.00087570614321554941,-0.095518081595204585,0.069001386881936355,9.5718409770183825
1786618072.410248,1786618072.4099581,vesc,0.00019520762730820652,0.00019520762730820652,nan,nan,0.01,1,0,1,0,0,1786618072.4099581,nan,-0.00016086117162459086,0.00077892676517233987,0.00019520762730820652,-0.035049591697547733,0.11169764776725444,9.7259572160057814
1786618072.4302638,1786618072.4299586,vesc,-0.00087570614321554941,-0.00087570614321554941,nan,nan,0.01,1,0,1,0,0,1786618072.4299586,nan,-0.00014836720104183631,-0.0013487319266381099,-0.00087570614321554941,-0.13355486058070642,0.097807074759291623,9.5475200671932043
1786618072.4502192,1786618072.4499722,vesc,-0.00087570614321554941,-0.00087570614321554941,nan,nan,0.01,1,0,1,0,0,1786618072.4499722,nan,-0.00014836720104183631,-0.0013487319266381099,-0.00087570614321554941,-0.10476041032141392,0.064288859770353923,9.5429779498800826
1786618072.4702218,1786618072.46983,vesc,0.00021446866681416318,0.00021446866681416318,nan,nan,0.01,1,0,1,0,0,1786618072.46983,nan,0.0019695210185193849,-0.0013516614038371971,0.00021446866681416318,-0.076696313873452659,0.092873632521889959,9.6008677262019546
1786618072.490144,1786618072.489876,vesc,-0.00089106301197013917,-0.00089106301197013917,nan,nan,0.01,1,0,1,0,0,1786618072.489876,nan,-0.0012135582961138242,-0.0024139589119669758,-0.00089106301197013917,-0.096192229043672306,0.044896750954954712,9.6292524510794237
1786618072.5102098,1786618072.5098963,vesc,-0.00087961024894833511,-0.00087961024894833511,nan,nan,0.01,1,0,1,0,0,1786618072.5098963,nan,-0.0012135582961138242,0.0018470832277002929,-0.00087961024894833511,-0.072356044280542875,0.097560523246249531,9.6392546986023717
1786618072.5302801,1786618072.5299151,vesc,0.00020483814706118484,0.00020483814706118484,nan,nan,0.01,1,0,1,0,0,1786618072.5299151,nan,0.00090432992344739716,-0.00028636783948107899,0.00020483814706118484,-0.11445220722503446,0.064263460926277105,9.5524445924263546
1786618072.5506079,1786618072.5501533,vesc,0.0023477065380674497,0.0023477065380674497,nan,nan,0.01,1,0,1,0,0,1786618072.5501533,nan,0.0019445335975025262,-0.00029212692533837534,0.0023477065380674497,-0.067847228689241312,0.092705963605883568,9.6632469948938251
1786618072.5701489,1786618072.5697758,vesc,0.0023323496693128604,0.0023323496693128604,nan,nan,0.01,1,0,1,0,0,1786618072.5697758,nan,0.00087934250243053844,-0.0013573539106672414,0.0023323496693128604,-0.072693118004776736,0.078323164654221955,9.6679411398204138
1786618072.5903101,1786618072.589958,vesc,-0.0019283997567013926,-0.0019283997567013926,nan,nan,0.01,1,0,1,0,0,1786618072.589958,nan,0.00092931734446425576,-0.0013459023179799006,-0.0019283997567013926,-0.095237177688734853,0.097805868771011717,9.5479703028177028
1786618072.6103063,1786618072.6099284,vesc,-0.0019312629149475528,-0.0019312629149475528,nan,nan,0.01,1,0,1,0,0,1786618072.6099284,nan,0.00092931734446425576,-0.0024111625928223929,-0.0019312629149475528,-0.058998134368755117,0.049428124008855434,9.7255093192676441
1786618072.6302063,1786618072.6298809,vesc,0.00019520762730820652,0.00019520762730820652,nan,nan,0.01,1,0,1,0,0,1786618072.6298809,nan,-0.00016086117162459086,0.00077892676517233987,0.00019520762730820652,-0.095405723687126631,0.1169273428528701,9.5623907066766378
1786618072.6500683,1786618072.6498334,vesc,0.0012575316630191562,0.0012575316630191562,nan,nan,0.01,1,0,1,0,0,1786618072.6498334,nan,-0.00017335514220734541,-0.0002891974481392882,0.0012575316630191562,-0.067341608966615674,0.08324176958127083,9.6201132526236961
1786618072.6701424,1786618072.6698542,vesc,-0.0019812377569812705,-0.0019812377569812705,nan,nan,0.01,1,0,1,0,0,1786618072.6698542,nan,-0.0033314465156750457,-0.0024110294347678887,-0.0019812377569812705,-0.072524572006384957,0.087941834813960895,9.6535979192113928
1786618072.6901972,1786618072.6899087,vesc,0.0012479011107568872,0.0012479011107568872,nan,nan,0.01,1,0,1,0,0,1786618072.6899087,nan,-0.0012385462372793334,0.00077609715651413066,0.0012479011107568872,-0.11935427549460886,0.092977968780651565,9.5620445514952053
1786618072.7102544,1786618072.7099373,vesc,-0.00087284285493222644,-0.00087284285493222644,nan,nan,0.01,1,0,1,0,0,1786618072.7099373,nan,-0.00014836720104183631,-0.00028347165179561784,-0.00087284285493222644,-0.030372230107854392,0.058981488075982469,9.7354507557452052
1786618072.7318947,1786618072.7314048,vesc,0.00017698743776100315,0.00017698743776100315,nan,nan,0.01,1,0,1,0,0,1786618072.7314048,nan,-0.0012260522666965789,-0.001351561535296319,0.00017698743776100315,-0.1141151335008006,0.12661097192677673,9.5238739260831835
1786618072.751138,1786618072.7501898,vesc,0.00022696240983188315,0.00022696240983188315,nan,nan,0.01,1,0,1,0,0,1786618072.7501898,nan,0.0030347123736656984,-0.0013516957336481238,0.00022696240983188315,-0.058267807966248419,0.049595500564066697,9.6632434865642836
1786618072.7704012,1786618072.7700107,vesc,0.0012728886618109084,0.0012728886618109084,nan,nan,0.01,1,0,1,0,0,1786618072.7700107,nan,0.00089183595286464255,0.00077602953718957789,0.0012728886618109084,-0.096079871135594352,0.088032722476146574,9.6197893168626933
1786618072.7902026,1786618072.7898724,vesc,0.00019234440404346486,0.00019234440404346486,nan,nan,0.01,1,0,1,0,0,1786618072.7898724,nan,-0.00016086117162459086,-0.00028633454996745305,0.00019234440404346486,-0.057930734242014559,0.083202885595518694,9.634594467528018
1786618072.8105209,1786618072.8102355,vesc,-0.00086607559095328035,-0.00086607559095328035,nan,nan,0.01,1,0,1,0,0,1786618072.8102355,nan,0.00091682389403015165,-0.0024140254909942277,-0.00086607559095328035,-0.1236945359512438,0.093081099051133265,9.5236716124129543
1786618072.8303421,1786618072.8299389,vesc,0.00020197492379644315,0.00020197492379644315,nan,nan,0.01,1,0,1,0,0,1786618072.8299389,nan,0.00090432992344739716,-0.0013516281143235711,0.00020197492379644315,-0.067959586597319266,0.06873011260915618,9.6727615846104982
1786618072.8502688,1786618072.8499234,vesc,0.00020770137032592652,0.00020770137032592652,nan,nan,0.01,1,0,1,0,0,1786618072.8499234,nan,0.00090432992344739716,0.00077889243536141293,0.00020770137032592652,-0.058380165874326373,0.063939780980970085,9.672860987280842
1786618072.8702717,1786618072.8699963,vesc,0.0002058789970199381,0.0002058789970199381,nan,nan,0.01,1,0,1,0,0,1786618072.8699963,nan,0.0019695210185193849,-0.0045474432686619737,0.0002058789970199381,-0.10565929185858725,0.10240307782146552,9.6197156419423209
1786618072.8902447,1786618072.8899357,vesc,-0.00086607559095328035,-0.00086607559095328035,nan,nan,0.01,1,0,1,0,0,1786618072.8899357,nan,0.00091682389403015165,-0.0024140254909942277,-0.00086607559095328035,-0.076752492827491636,0.097650789641745561,9.6056706293443312
1786618072.9101784,1786618072.909909,vesc,-0.00089106301197013917,-0.00089106301197013917,nan,nan,0.01,1,0,1,0,0,1786618072.909909,nan,-0.0012135582961138242,-0.0024139589119669758,-0.00089106301197013917,-0.077370461321920381,0.044818946438351048,9.658216050331248
1786618072.930383,1786618072.9300628,vesc,-0.0030032176329579342,-0.0030032176329579342,nan,nan,0.01,1,0,1,0,0,1786618072.9300628,nan,-0.00012337978002497762,-0.00027774585545194748,-0.0030032176329579342,-0.048182776656904736,0.10240126883904566,9.6203892412142977
1786618072.9503646,1786618072.949991,vesc,0.0012728886618109084,0.0012728886618109084,nan,nan,0.01,1,0,1,0,0,1786618072.949991,nan,0.00089183595286464255,0.00077602953718957789,0.0012728886618109084,-0.1147330928589545,0.083359152440515061,9.5764450748200716
1786618072.9777689,1786618072.9772646,vesc,0.00018661795751398149,0.00018661795751398149,nan,nan,0.01,1,0,1,0,0,1786618072.9772646,nan,-0.00016086117162459086,-0.0024168550996524372,0.00018661795751398149,-0.086668996410993238,0.054463636708856455,9.6341804846421155
1786618072.9904027,1786618072.9899991,vesc,-0.00088819985372397866,-0.00088819985372397866,nan,nan,0.01,1,0,1,0,0,1786618072.9899991,nan,-0.0012135582961138242,-0.001348698637124484,-0.00088819985372397866,-0.073367265453244457,0.068588646529413211,9.7253923749495925
1786618073.0102856,1786618073.009948,vesc,-0.00084785543391536762,-0.00084785543391536762,nan,nan,0.01,1,0,1,0,0,1786618073.009948,nan,0.0019820149891021394,-0.00028353823082286983,-0.00084785543391536762,-0.13299307104031666,0.11709590712381157,9.4996746383487789
1786618073.0301888,1786618073.0298636,vesc,0.0012518052164896727,0.0012518052164896727,nan,nan,0.01,1,0,1,0,0,1786618073.0298636,nan,-0.00017335514220734541,-0.002419717997824272,0.0012518052164896727,-0.073254907545166503,0.044664324122827281,9.7157479770398822
1786618073.0503218,1786618073.0499849,vesc,0.00019234440404346486,0.00019234440404346486,nan,nan,0.01,1,0,1,0,0,1786618073.0499849,nan,-0.00016086117162459086,-0.00028633454996745305,0.00019234440404346486,-0.081879276913221943,0.078413613775214941,9.6343009372897086
1786618073.0702355,1786618073.0699809,vesc,0.0012700253735275855,0.0012700253735275855,nan,nan,0.01,1,0,1,0,0,1786618073.0699809,nan,0.00089183595286464255,-0.0002892307376529142,0.0012700253735275855,-0.086668996410993238,0.083203762677904081,9.6342576678920295
1786618073.0902784,1786618073.0899222,vesc,-0.00087856930146170981,-0.00087856930146170981,nan,nan,0.01,1,0,1,0,0,1786618073.0899222,nan,-0.00014836720104183631,-0.002413992201480602,-0.00087856930146170981,-0.063394592051978726,0.092628561085373207,9.6920410248844746
1786618073.1102903,1786618073.1099226,vesc,-0.00089106301197013917,-0.00089106301197013917,nan,nan,0.01,1,0,1,0,0,1786618073.1099226,nan,-0.0012135582961138242,-0.0024139589119669758,-0.00089106301197013917,-0.10447952468749389,0.11225346218389376,9.519157561736165
1786618073.1307681,1786618073.1299434,vesc,-0.00088143258974503278,-0.00088143258974503278,nan,nan,0.01,1,0,1,0,0,1786618073.1299434,nan,-0.00014836720104183631,-0.0034792535166203948,-0.00088143258974503278,-0.035105761515311862,0.068574576666147635,9.7306314803983014
1786618073.1502817,1786618073.1499512,vesc,0.00019234440404346486,0.00019234440404346486,nan,nan,0.01,1,0,1,0,0,1786618073.1499512,nan,-0.00016086117162459086,-0.00028633454996745305,0.00019234440404346486,-0.095237195961284549,0.12175597374521807,9.5480346221926311
1786618073.1701951,1786618073.1698565,vesc,-0.0019533871777182511,-0.0019533871777182511,nan,nan,0.01,1,0,1,0,0,1786618073.1698565,nan,-0.0012010648456797202,-0.0013458357389526487,-0.0019533871777182511,-0.072356035144268027,0.06882037900465221,9.6391775153524577
1786618073.1901877,1786618073.1898801,vesc,-0.001940893467209822,-0.001940893467209822,nan,nan,0.01,1,0,1,0,0,1786618073.1898801,nan,-0.00013587375060773214,-0.0013458690284662747,-0.001940893467209822,-0.10543457604243134,0.078504464892301229,9.6004923349410092
1786618073.2104437,1786618073.2100444,vesc,-0.0019283997567013926,-0.0019283997567013926,nan,nan,0.01,1,0,1,0,0,1786618073.2100444,nan,0.00092931734446425576,-0.0013459023179799006,-0.0019283997567013926,-0.072580750960423934,0.087928970938975226,9.6583879584787837
1786618073.2302799,1786618073.2299831,vesc,-0.00088533669547781837,-0.00088533669547781837,nan,nan,0.01,1,0,1,0,0,1786618073.2299831,nan,-0.0012135582961138242,-0.00028343732198469102,-0.00088533669547781837,-0.15305077575092607,0.11689052366523356,9.5760848863204728
1786618073.250277,1786618073.2499695,vesc,-0.00087570614321554941,-0.00087570614321554941,nan,nan,0.01,1,0,1,0,0,1786618073.2499695,nan,-0.00014836720104183631,-0.0013487319266381099,-0.00087570614321554941,-0.1285966224933679,0.083475475491876949,9.5331686604819197
1786618073.2704456,1786618073.2699435,vesc,0.00022019511334364655,0.00022019511334364655,nan,nan,0.01,1,0,1,0,0,1786618073.2699435,nan,0.0019695210185193849,0.00077885914584778699,0.00022019511334364655,-0.081710740051105013,0.059292121420806865,9.6198805334307735
1786618073.2902694,1786618073.2899933,vesc,0.0012671622152814249,0.0012671622152814249,nan,nan,0.01,1,0,1,0,0,1786618073.2899933,nan,0.00089183595286464255,-0.0013544910124954062,0.0012671622152814249,-0.068015765551358243,0.068717248734170511,9.6775516238778891
1786618073.3102586,1786618073.310004,vesc,0.0012450379525107266,0.0012450379525107266,nan,nan,0.01,1,0,1,0,0,1786618073.310004,nan,-0.0012385462372793334,-0.00028916311832836143,0.0012450379525107266,-0.071794245603878259,0.10247927435369597,9.5913706781329893
1786618073.3301594,1786618073.3298695,vesc,0.00018661795751398149,0.00018661795751398149,nan,nan,0.01,1,0,1,0,0,1786618073.3298695,nan,-0.00016086117162459086,-0.0024168550996524372,0.00018661795751398149,-0.081879276913221943,0.040093409271385383,9.6341980262898232
1786618073.3501534,1786618073.3498821,vesc,0.0023477065380674497,0.0023477065380674497,nan,nan,0.01,1,0,1,0,0,1786618073.3498821,nan,0.0019445335975025262,-0.00029212692533837534,0.0023477065380674497,-0.06739778792065465,0.11675905267017406,9.6249933390159867
1786618073.3701122,1786618073.3698385,vesc,0.0012364482176979203,0.0012364482176979203,nan,nan,0.01,1,0,1,0,0,1786618073.3698385,nan,-0.0012385462372793334,-0.0034849449831531381,0.0012364482176979203,-0.086612808320679413,0.08321662655288975,9.6294687980678191
1786618073.3901842,1786618073.3899467,vesc,-0.00087284285493222644,-0.00087284285493222644,nan,nan,0.01,1,0,1,0,0,1786618073.3899467,nan,-0.00014836720104183631,-0.00028347165179561784,-0.00087284285493222644,-0.095405723687126631,0.07381715389929866,9.5622749318017668
1786618073.4103763,1786618073.4100912,vesc,-0.00088533669547781837,-0.00088533669547781837,nan,nan,0.01,1,0,1,0,0,1786618073.4100912,nan,-0.0012135582961138242,-0.00028343732198469102,-0.00088533669547781837,-0.034993403607233908,0.059020262426436432,9.7210256741135481
1786618073.4301505,1786618073.4298563,vesc,-0.00088819985372397866,-0.00088819985372397866,nan,nan,0.01,1,0,1,0,0,1786618073.4298563,nan,-0.0012135582961138242,-0.001348698637124484,-0.00088819985372397866,-0.10943776277483241,0.10742499574449305,9.533457512947507
1786618073.4501121,1786618073.4498529,vesc,-0.0019562503359644118,-0.0019562503359644118,nan,nan,0.01,1,0,1,0,0,1786618073.4498529,nan,-0.0012010648456797202,-0.0024110960137951405,-0.0019562503359644118,-0.090616013325630185,0.11213717567763126,9.5624339760743169
1786618073.4702272,1786618073.4698856,vesc,0.00019911170053170147,0.00019911170053170147,nan,nan,0.01,1,0,1,0,0,1786618073.4698856,nan,0.00090432992344739716,-0.0024168883891660629,0.00019911170053170147,-0.086893712227149145,0.078362267910570438,9.6534037916434272
1786618073.4907305,1786618073.4903226,vesc,-0.0019341260731937132,-0.0019341260731937132,nan,nan,0.01,1,0,1,0,0,1786618073.4903226,nan,0.00092931734446425576,-0.0034764239079621857,-0.0019341260731937132,-0.12436870167226122,0.049816415689885929,9.5810316309740529
1786618073.5102978,1786618073.5099795,vesc,-0.00089496711770292476,-0.00089496711770292476,nan,nan,0.01,1,0,1,0,0,1786618073.5099795,nan,-0.0022787499113344628,0.00078185624237142701,-0.00089496711770292476,-0.039221324428340587,0.087889319506135877,9.6731498397464293
1786618073.5307987,1786618073.5304415,vesc,0.00020483814706118484,0.00020483814706118484,nan,nan,0.01,1,0,1,0,0,1786618073.5304415,nan,0.00090432992344739716,-0.00028636783948107899,0.00020483814706118484,-0.12809100277074226,0.11712150696593504,9.4901518625298422
1786618073.5506649,1786618073.5502589,vesc,-0.00087570614321554941,-0.00087570614321554941,nan,nan,0.01,1,0,1,0,0,1786618073.5502589,nan,-0.00014836720104183631,-0.0013487319266381099,-0.00087570614321554941,-0.068071935369122372,0.035174183077646859,9.6822504465771999
1786618073.5707786,1786618073.5700698,vesc,0.00018661795751398149,0.00018661795751398149,nan,nan,0.01,1,0,1,0,0,1786618073.5700698,nan,-0.00016086117162459086,-0.0024168550996524372,0.00018661795751398149,-0.10098193940516875,0.10237718561854692,9.629350684306587
1786618073.5905073,1786618073.5901935,vesc,-0.0019562503359644118,-0.0019562503359644118,nan,nan,0.01,1,0,1,0,0,1786618073.5901935,nan,-0.0012010648456797202,-0.0024110960137951405,-0.0019562503359644118,-0.076415419103257776,0.097728027709308662,9.5769327326263465
1786618073.6103575,1786618073.6100304,vesc,0.00016449369474328318,0.00016449369474328318,nan,nan,0.01,1,0,1,0,0,1786618073.6100304,nan,-0.0022912428416199163,-0.0013515272054853921,0.00016449369474328318,-0.091290160774097906,0.06408245304899296,9.6197811307604297
1786618073.6302924,1786618073.6299195,vesc,0.0012728886618109084,0.0012728886618109084,nan,nan,0.01,1,0,1,0,0,1786618073.6299195,nan,0.00089183595286464255,0.00077602953718957789,0.0012728886618109084,-0.058323986920287396,0.06874268412334672,9.6680838118884367
1786618073.6506259,1786618073.6502557,vesc,-0.0019380303089636616,-0.0019380303089636616,nan,nan,0.01,1,0,1,0,0,1786618073.6502557,nan,-0.00013587375060773214,-0.00028060875362378264,-0.0019380303089636616,-0.053815171328985834,0.068678145477822028,9.6920889720548757
1786618073.6703446,1786618073.6699612,vesc,0.0012603948212653164,0.0012603948212653164,nan,nan,0.01,1,0,1,0,0,1786618073.6699612,nan,-0.00017335514220734541,0.00077606386700050461,0.0012603948212653164,-0.10064486568093489,0.078504318711903665,9.6005484682136739
1786618073.6903031,1786618073.690002,vesc,-0.00087856930146170981,-0.00087856930146170981,nan,nan,0.01,1,0,1,0,0,1786618073.690002,nan,-0.00014836720104183631,-0.002413992201480602,-0.00087856930146170981,-0.1049289563198057,0.083410352124761999,9.5573983537390177
1786618073.71035,1786618073.7100415,vesc,-0.00088429574799119308,-0.00088429574799119308,nan,nan,0.01,1,0,1,0,0,1786618073.7100415,nan,-0.00014836720104183631,-0.0045445137914628866,-0.00088429574799119308,-0.058661060644521257,0.035135299091894723,9.6967328309247023
1786618073.7303264,1786618073.7299521,vesc,0.0012632581095486394,0.0012632581095486394,nan,nan,0.01,1,0,1,0,0,1786618073.7299521,nan,-0.00017335514220734541,0.0018413241418429966,0.0012632581095486394,-0.095630439503282538,0.11208581154043706,9.581535660984855
1786618073.7503579,1786618073.7500134,vesc,-0.00086321230266995738,-0.00086321230266995738,nan,nan,0.01,1,0,1,0,0,1786618073.7500134,nan,0.00091682389403015165,-0.0013487652161517359,-0.00086321230266995738,-0.09140251868217586,0.068846728021313197,9.6293729037270168
1786618073.7702196,1786618073.7699225,vesc,0.0012757519500942313,0.0012757519500942313,nan,nan,0.01,1,0,1,0,0,1786618073.7699225,nan,0.00089183595286464255,0.0018412908523293707,0.0012757519500942313,-0.086893712227149145,0.073572228643179471,9.6533909277684415
1786618073.7903943,1786618073.7900372,vesc,-0.00089106301197013917,-0.00089106301197013917,nan,nan,0.01,1,0,1,0,0,1786618073.7900372,nan,-0.0012135582961138242,-0.0024139589119669758,-0.00089106301197013917,-0.048688387243255526,0.10707542359626743,9.6635101196094411
1786618073.8103261,1786618073.8100066,vesc,-0.0019476606011516052,-0.0019476606011516052,nan,nan,0.01,1,0,1,0,0,1786618073.8100066,nan,-0.0012010648456797202,0.00078468585102963622,-0.0019476606011516052,-0.11428366122664269,0.10741225977735525,9.5381914189422332
1786618073.83023,1786618073.8298995,vesc,0.00018948118077872315,0.00018948118077872315,nan,nan,0.01,1,0,1,0,0,1786618073.8298995,nan,-0.00016086117162459086,-0.001351594824809945,0.00018948118077872315,-0.044741361192343732,0.07335200787424867,9.735320947552168
1786618073.8502128,1786618073.8499205,vesc,0.0012393115059812433,0.0012393115059812433,nan,nan,0.01,1,0,1,0,0,1786618073.8499205,nan,-0.0012385462372793334,-0.0024196847083106463,0.0012393115059812433,-0.049081639921528364,0.073455174689829761,9.6969480084699171
1786618073.8704576,1786618073.8700826,vesc,-0.00086997969668606593,-0.00086997969668606593,nan,nan,0.01,1,0,1,0,0,1786618073.8700826,nan,-0.00014836720104183631,0.00078178966334417502,-0.00086997969668606593,-0.11980370712692068,0.097665005685408701,9.6003753906229576
1786618073.8904548,1786618073.8901238,vesc,0.0023227191170505914,0.0023227191170505914,nan,nan,0.01,1,0,1,0,0,1786618073.8901238,nan,-0.00018584859264144957,-0.00029206034631112335,0.0023227191170505914,-0.086781354319071191,0.1071281216295894,9.6439020658017398
1786618073.910275,1786618073.9099722,vesc,-0.0019562503359644118,-0.0019562503359644118,nan,nan,0.01,1,0,1,0,0,1786618073.9099722,nan,-0.0012010648456797202,-0.0024110960137951405,-0.0019562503359644118,-0.1334986907629423,0.073869851932620634,9.542665708550885
1786618073.9301229,1786618073.929867,vesc,-0.00087856930146170981,-0.00087856930146170981,nan,nan,0.01,1,0,1,0,0,1786618073.929867,nan,-0.00014836720104183631,-0.002413992201480602,-0.00087856930146170981,-0.05877341855259921,0.083009781290336093,9.7064403787661604
1786618073.9503715,1786618073.9500194,vesc,0.00014627350519607981,0.00014627350519607981,nan,nan,0.01,1,0,1,0,0,1786618073.9500194,nan,-0.0033564344568405551,-0.003482015505954051,0.00014627350519607981,-0.14290956548754341,0.09785885916512882,9.5282488130214915
1786618073.9703193,1786618073.9699805,vesc,0.0012642990570352647,0.0012642990570352647,nan,nan,0.01,1,0,1,0,0,1786618073.9699805,nan,0.00089183595286464255,-0.0024197512873378982,0.0012642990570352647,-0.08683752413683532,0.068795089795873565,9.6485880246260649
1786618073.9901998,1786618073.9899223,vesc,0.00016449369474328318,0.00016449369474328318,nan,nan,0.01,1,0,1,0,0,1786618073.9899223,nan,-0.0022912428416199163,-0.0013515272054853921,0.00016449369474328318,-0.1106737180362396,0.064031582270640541,9.6387155852961541
1786618074.0102634,1786618074.0099664,vesc,0.00018271388429048652,0.00018271388429048652,nan,nan,0.01,1,0,1,0,0,1786618074.0099664,nan,-0.0012260522666965789,0.00077896005468596581,0.00018271388429048652,-0.086107188598053774,0.1072826160372653,9.5864251029225898
1786618074.0303335,1786618074.0299864,vesc,0.00021160544354942147,0.00021160544354942147,nan,nan,0.01,1,0,1,0,0,1786618074.0299864,nan,0.0019695210185193849,-0.0024169227189769897,0.00021160544354942147,-0.086444262322287635,0.059305131476190098,9.6150343608907178
1786618074.0503106,1786618074.0499883,vesc,-0.0041280099611367051,-0.0041280099611367051,nan,nan,0.01,1,0,1,0,0,1786618074.0499883,nan,-0.0054368428452481144,0.00079054584572511128,-0.0041280099611367051,-0.14307811148593519,0.093030228272780846,9.5426048975054982
1786618074.0702446,1786618074.0699406,vesc,-0.00084212898738588436,-0.00084212898738588436,nan,nan,0.01,1,0,1,0,0,1786618074.0699406,nan,0.0019820149891021394,0.0018469823188621143,-0.00084212898738588436,-0.053253381788596066,0.068806893862976892,9.6441920877105076
1786618074.090239,1786618074.0899391,vesc,-0.0019380303089636616,-0.0019380303089636616,nan,nan,0.01,1,0,1,0,0,1786618074.0899391,nan,-0.00013587375060773214,-0.00028060875362378264,-0.0019380303089636616,-0.087624029493380995,0.0734048886330676,9.715656760471802
1786618074.1102865,1786618074.1099656,vesc,-0.00087284285493222644,-0.00087284285493222644,nan,nan,0.01,1,0,1,0,0,1786618074.1099656,nan,-0.00014836720104183631,-0.00028347165179561784,-0.00087284285493222644,-0.11896101368006118,0.11222817297511511,9.5285692404529527
1786618074.1302392,1786618074.1299622,vesc,-0.0019562503359644118,-0.0019562503359644118,nan,nan,0.01,1,0,1,0,0,1786618074.1299622,nan,-0.0012010648456797202,-0.0024110960137951405,-0.0019562503359644118,-0.078100787724427079,0.035071527893457244,9.7204561552846371
1786618074.1502099,1786618074.1499219,vesc,0.00019807085057294823,0.00019807085057294823,nan,nan,0.01,1,0,1,0,0,1786618074.1499219,nan,-0.00016086117162459086,0.0018441870400148319,0.00019807085057294823,-0.086331922686759377,0.10244110299738196,9.6055712266739874
1786618074.1702571,1786618074.1699505,vesc,-0.00086711640840274296,-0.00086711640840274296,nan,nan,0.01,1,0,1,0,0,1786618074.1699505,nan,-0.00014836720104183631,0.0018470499381866669,-0.00086711640840274296,-0.096360775042064084,0.083178327288727871,9.643725479881482
1786618074.1904445,1786618074.189929,vesc,0.003387906050933376,0.003387906050933376,nan,nan,0.01,1,0,1,0,0,1786618074.189929,nan,-0.00019834256322420413,-0.00029492324448295856,0.003387906050933376,-0.11050517203784782,0.07365021588528009,9.6243723646871331
1786618074.2104352,1786618074.210017,vesc,0.00020197492379644315,0.00020197492379644315,nan,nan,0.01,1,0,1,0,0,1786618074.210017,nan,0.00090432992344739716,-0.0013516281143235711,0.00020197492379644315,-0.048744566197294503,0.073532394484843167,9.6682089423087518
1786618074.2301676,1786618074.2299035,vesc,0.0012325442420022975,0.0012325442420022975,nan,nan,0.01,1,0,1,0,0,1786618074.2299035,nan,-0.0023037368122026708,-0.00028912982881473543,0.0012325442420022975,-0.049418713645762224,0.049427795102960914,9.7256215858129735
1786618074.2505827,1786618074.2500157,vesc,0.0012075566909482761,0.0012075566909482761,nan,nan,0.01,1,0,1,0,0,1786618074.2500157,nan,-0.0044341190023466466,-0.00028906324978748344,0.0012075566909482761,-0.095181007870970724,0.097818750918547082,9.5431802635503118
1786618074.2703748,1786618074.2699914,vesc,-0.0019159057861186379,-0.0019159057861186379,nan,nan,0.01,1,0,1,0,0,1786618074.2699914,nan,0.0019945084395362441,-0.0013459356074935265,-0.0019159057861186379,-0.07229985619022905,0.078413284869320421,9.6344132038350381
1786618074.290751,1786618074.2900956,vesc,0.00020197492379644315,0.00020197492379644315,nan,nan,0.01,1,0,1,0,0,1786618074.2900956,nan,0.00090432992344739716,-0.0013516281143235711,0.00020197492379644315,-0.1057716497666652,0.09279728980926194,9.629268823283951
1786618074.310282,1786618074.3099532,vesc,0.0012632581095486394,0.0012632581095486394,nan,nan,0.01,1,0,1,0,0,1786618074.3099532,nan,-0.00017335514220734541,0.0018413241418429966,0.0012632581095486394,-0.058043092150092512,0.097547184284971777,9.6442131376877569
1786618074.3304355,1786618074.3300729,vesc,0.00018375473424923978,0.00018375473424923978,nan,nan,0.01,1,0,1,0,0,1786618074.3300729,nan,-0.00016086117162459086,-0.00348211641479223,0.00018375473424923978,-0.13806368530828284,0.09787159513226662,9.5235160764699458
1786618074.3502488,1786618074.3499358,vesc,0.0012575316630191562,0.0012575316630191562,nan,nan,0.01,1,0,1,0,0,1786618074.3499358,nan,-0.00017335514220734541,-0.0002891974481392882,0.0012575316630191562,-0.082721961223806595,0.068640467480349798,9.7061211207778797
1786618074.3702528,1786618074.3699803,vesc,-0.00089392630025346203,-0.00089392630025346203,nan,nan,0.01,1,0,1,0,0,1786618074.3699803,nan,-0.0012135582961138242,-0.003479219186809468,-0.00089392630025346203,-0.12442487149002535,0.078543677783947885,9.5858988534913578
1786618074.3902881,1786618074.389992,vesc,-0.00087856930146170981,-0.00087856930146170981,nan,nan,0.01,1,0,1,0,0,1786618074.389992,nan,-0.00014836720104183631,-0.002413992201480602,-0.00087856930146170981,-0.095630439503282538,0.054605541329792118,9.581381294485027
1786618074.4102786,1786618074.4099469,vesc,0.00018375473424923978,0.00018375473424923978,nan,nan,0.01,1,0,1,0,0,1786618074.4099469,nan,-0.00016086117162459086,-0.00348211641479223,0.00018375473424923978,-0.077538998184037311,0.035200276278612108,9.672559270940269
1786618074.4302833,1786618074.4299893,vesc,0.0023477065380674497,0.0023477065380674497,nan,nan,0.01,1,0,1,0,0,1786618074.4299893,nan,0.0019445335975025262,-0.00029212692533837534,0.0023477065380674497,-0.11056136012816165,0.059267270753220913,9.6291226428863865
1786618074.4504743,1786618074.4499929,vesc,0.0012671622152814249,0.0012671622152814249,nan,nan,0.01,1,0,1,0,0,1786618074.4499929,nan,0.00089183595286464255,-0.0013544910124954062,0.0012671622152814249,-0.048856924105372457,0.087876711446845945,9.6778276124684908
1786618074.4702685,1786618074.4699352,vesc,0.00018948118077872315,0.00018948118077872315,nan,nan,0.01,1,0,1,0,0,1786618074.4699352,nan,-0.00016086117162459086,-0.001351594824809945,0.00018948118077872315,-0.12887750812728793,0.059461032870192554,9.5570533680007657
1786618074.4907563,1786618074.4899755,vesc,0.00020770137032592652,0.00020770137032592652,nan,nan,0.01,1,0,1,0,0,1786618074.4899755,nan,0.00090432992344739716,0.00077889243536141293,0.00020770137032592652,-0.10064486568093489,0.078504318711903665,9.6005484682136739
1786618074.5105429,1786618074.5099325,vesc,0.00019520762730820652,0.00019520762730820652,nan,nan,0.01,1,0,1,0,0,1786618074.5099325,nan,-0.00016086117162459086,0.00077892676517233987,0.00019520762730820652,-0.063900202638329517,0.082932671130620861,9.7351221422114804
1786618074.5307133,1786618074.5304193,vesc,0.0012575316630191562,0.0012575316630191562,nan,nan,0.01,1,0,1,0,0,1786618074.5304193,nan,-0.00017335514220734541,-0.0002891974481392882,0.0012575316630191562,-0.094843934146736864,0.13621615694484035,9.5145452778322124
1786618074.5503085,1786618074.5499537,vesc,-0.0008324984351236154,-0.0008324984351236154,nan,nan,0.01,1,0,1,0,0,1786618074.5499537,nan,0.0030472060841741275,0.0007816887545059962,-0.0008324984351236154,-0.077538998184037311,0.054360360257977192,9.6726107264402117
1786618074.5703664,1786618074.5700166,vesc,0.00017985066102574486,0.00017985066102574486,nan,nan,0.01,1,0,1,0,0,1786618074.5700166,nan,-0.0012260522666965789,-0.00028630022015652622,0.00017985066102574486,-0.095967513227516399,0.10242853148319142,9.6102489993960489
1786618074.5904469,1786618074.590018,vesc,0.0023352125674846952,0.0023352125674846952,nan,nan,0.01,1,0,1,0,0,1786618074.590018,nan,0.00087934250243053844,-0.0002920936358247494,0.0023352125674846952,-0.082047813775338874,0.083164988327450118,9.6486827495236867
1786618074.6106231,1786618074.6099699,vesc,-0.00088533669547781837,-0.00088533669547781837,nan,nan,0.01,1,0,1,0,0,1786618074.6099699,nan,-0.0012135582961138242,-0.00028343732198469102,-0.00088533669547781837,-0.10470424050364979,0.064301760190438983,9.5381879106126917
1786618074.6302149,1786618074.62991,vesc,0.0012603948212653164,0.0012603948212653164,nan,nan,0.01,1,0,1,0,0,1786618074.62991,nan,-0.00017335514220734541,0.00077606386700050461,0.0012603948212653164,-0.13321778685647256,0.11225437581137854,9.5188207621001766
1786618074.6502042,1786618074.6499221,vesc,-0.00088819985372397866,-0.00088819985372397866,nan,nan,0.01,1,0,1,0,0,1786618074.6499221,nan,-0.0012135582961138242,-0.001348698637124484,-0.00088819985372397866,-0.06857755509174801,0.044638377102259597,9.7253841888473289
1786618074.6705091,1786618074.6699328,vesc,0.00019520762730820652,0.00019520762730820652,nan,nan,0.01,1,0,1,0,0,1786618074.6699328,nan,-0.00016086117162459086,0.00077892676517233987,0.00019520762730820652,-0.11462073495087655,0.11212504270463342,9.5669421795352036
1786618074.690248,1786618074.6899538,vesc,0.0023227191170505914,0.0023227191170505914,nan,nan,0.01,1,0,1,0,0,1786618074.6899538,nan,-0.00018584859264144957,-0.00029206034631112335,0.0023227191170505914,-0.091121614775706128,0.064121081219049358,9.6054121824014373
1786618074.7103188,1786618074.7099719,vesc,-0.00089106301197013917,-0.00089106301197013917,nan,nan,0.01,1,0,1,0,0,1786618074.7099719,nan,-0.0012135582961138242,-0.0024139589119669758,-0.00089106301197013917,-0.095686609321046667,0.03064259075314979,9.5861070143774896
1786618074.7303214,1786618074.730001,vesc,0.00020197492379644315,0.00020197492379644315,nan,nan,0.01,1,0,1,0,0,1786618074.730001,nan,0.00090432992344739716,-0.0013516281143235711,0.00020197492379644315,-0.030035156383620532,0.092588909652533857,9.7068029061521202
1786618074.7503934,1786618074.749963,vesc,0.0012518052164896727,0.0012518052164896727,nan,nan,0.01,1,0,1,0,0,1786618074.749963,nan,-0.00017335514220734541,-0.002419717997824272,0.0012518052164896727,-0.14313428130369932,0.073857280418430094,9.5473434812729465
1786618074.7702451,1786618074.7699409,vesc,0.0012603948212653164,0.0012603948212653164,nan,nan,0.01,1,0,1,0,0,1786618074.7699409,nan,-0.00017335514220734541,0.00077606386700050461,0.0012603948212653164,-0.067903407643280289,0.068742976484141849,9.6679715453431072
1786618074.7904885,1786618074.7901156,vesc,0.00017698743776100315,0.00017698743776100315,nan,nan,0.01,1,0,1,0,0,1786618074.7901156,nan,-0.0012260522666965789,-0.001351561535296319,0.00017698743776100315,-0.09630458695175026,0.092771233153396082,9.6389611683640624
1786618074.8106685,1786618074.8101313,vesc,-0.00083822488165309877,-0.00083822488165309877,nan,nan,0.01,1,0,1,0,0,1786618074.8101313,nan,0.0030472060841741275,-0.0013488328354762885,-0.00083822488165309877,-0.095405723687126631,0.083397195888981202,9.5623006595517381
1786618074.8302913,1786618074.8299148,vesc,-0.0019437566254559822,-0.0019437566254559822,nan,nan,0.01,1,0,1,0,0,1786618074.8299148,nan,-0.00013587375060773214,-0.0024111293033087667,-0.0019437566254559822,-0.07686485073556959,0.1024150646140658,9.6152635717540988
1786618074.8503435,1786618074.849997,vesc,-0.00088819985372397866,-0.00088819985372397866,nan,nan,0.01,1,0,1,0,0,1786618074.849997,nan,-0.0012135582961138242,-0.001348698637124484,-0.00088819985372397866,-0.11985987694468481,0.088072081548190795,9.6051397021403773
1786618074.8703883,1786618074.8700116,vesc,0.00020483814706118484,0.00020483814706118484,nan,nan,0.01,1,0,1,0,0,1786618074.8700116,nan,0.00090432992344739716,-0.00028636783948107899,0.00020483814706118484,-0.067678691827124382,0.087954552508549,9.6488651826598471
1786618074.8904412,1786618074.8900619,vesc,0.0012614357687519416,0.0012614357687519416,nan,nan,0.01,1,0,1,0,0,1786618074.8900619,nan,0.00089183595286464255,-0.003485012602477691,0.0012614357687519416,-0.08210399272937785,0.068782079740490332,9.6534341971661206
1786618074.9103281,1786618074.9099872,vesc,-0.00087961024894833511,-0.00087961024894833511,nan,nan,0.01,1,0,1,0,0,1786618074.9099872,nan,-0.0012135582961138242,0.0018470832277002929,-0.00087961024894833511,-0.11896101368006118,0.073908005016384948,9.5284651600098869
1786618074.930445,1786618074.9299705,vesc,0.00018661795751398149,0.00018661795751398149,nan,nan,0.01,1,0,1,0,0,1786618074.9299705,nan,-0.00016086117162459086,-0.0024168550996524372,0.00018661795751398149,-0.058829597506638187,0.06383679689088595,9.7111789625336087
1786618074.9502978,1786618074.9499879,vesc,-0.00086425325015658267,-0.00086425325015658267,nan,nan,0.01,1,0,1,0,0,1786618074.9499879,nan,-0.00014836720104183631,0.002912310213029159,-0.00086425325015658267,-0.10515367213596161,0.12167904631099979,9.5766602523652864
1786618074.9704397,1786618074.9699962,vesc,0.0023391168032546438,0.0023391168032546438,nan,nan,0.01,1,0,1,0,0,1786618074.9699962,nan,0.0019445335975025262,-0.0034879087901631524,0.0023391168032546438,-0.081879276913221943,0.054463490528458891,9.6342366179147803
1786618074.9904158,1786618074.9900548,vesc,0.0023102251464678365,0.0023102251464678365,nan,nan,0.01,1,0,1,0,0,1786618074.9900548,nan,-0.0012510396877134374,-0.00029202601650019658,0.0023102251464678365,-0.07686485073556959,0.097625043619224527,9.6152507078791132
1786618075.0104566,1786618075.0101273,vesc,-0.00086997969668606593,-0.00086997969668606593,nan,nan,0.01,1,0,1,0,0,1786618075.0101273,nan,-0.00014836720104183631,0.00078178966334417502,-0.00086997969668606593,-0.091795780496723545,0.092706731052970781,9.6629651590873209
1786618075.0302796,1786618075.0300126,vesc,-0.0019226731801347467,-0.0019226731801347467,nan,nan,0.01,1,0,1,0,0,1786618075.0300126,nan,0.00092931734446425576,0.00078461823170508345,-0.0019226731801347467,-0.044291929560031917,0.083035070499114738,9.6970298694925532
1786618075.0504479,1786618075.0500503,vesc,-0.00086034914442379708,-0.00086034914442379708,nan,nan,0.01,1,0,1,0,0,1786618075.0500503,nan,0.00091682389403015165,-0.00028350494130924384,-0.00086034914442379708,-0.11890484386229705,0.15056124135393034,9.5238821121854471
1786618075.0704901,1786618075.0701258,vesc,0.00015876724821379981,0.00015876724821379981,nan,nan,0.01,1,0,1,0,0,1786618075.0701258,nan,-0.0022912428416199163,-0.0034820487954676767,0.00015876724821379981,-0.063001330237431041,0.054398513341741506,9.6584101778992135
1786618075.0903101,1786618075.0899773,vesc,-0.00089783040598624762,-0.00089783040598624762,nan,nan,0.01,1,0,1,0,0,1786618075.0899773,nan,-0.0022787488710371622,-0.00028340403247106507,-0.00089783040598624762,-0.12008459276084071,0.092810628770539694,9.6243115536417463
1786618075.1103261,1786618075.1099467,vesc,-0.00085462269789431371,-0.00085462269789431371,nan,nan,0.01,1,0,1,0,0,1786618075.1099467,nan,0.00091682389403015165,0.001847016648673041,-0.00085462269789431371,-0.081542203188988083,0.083280872837619313,9.6055759044467095
1786618075.1304975,1786618075.130167,vesc,-0.00083822488165309877,-0.00083822488165309877,nan,nan,0.01,1,0,1,0,0,1786618075.130167,nan,0.0030472060841741275,-0.0013488328354762885,-0.00083822488165309877,-0.10042014986477898,0.06897576876726319,9.5813637528373192
1786618075.1504335,1786618075.1500404,vesc,0.00019520762730820652,0.00019520762730820652,nan,nan,0.01,1,0,1,0,0,1786618075.1500404,nan,-0.00016086117162459086,0.00077892676517233987,0.00019520762730820652,-0.049081639921528364,0.063875132700147219,9.6969222807199458
1786618075.170212,1786618075.169878,vesc,0.0012450379525107266,0.0012450379525107266,nan,nan,0.01,1,0,1,0,0,1786618075.169878,nan,-0.0012385462372793334,-0.00028916311832836143,0.0012450379525107266,-0.1334986907629423,0.10260997790166826,9.5427440612439796
1786618075.1907494,1786618075.1899307,vesc,-0.00088533669547781837,-0.00088533669547781837,nan,nan,0.01,1,0,1,0,0,1786618075.1899307,nan,-0.0012135582961138242,-0.00028343732198469102,-0.00088533669547781837,-0.076752492827491636,0.049750561420783157,9.6055419905944746
1786618075.210845,1786618075.2100139,vesc,-0.0008824734071944954,-0.0008824734071944954,nan,nan,0.01,1,0,1,0,0,1786618075.2100139,nan,-0.0012135582961138242,0.00078182295285780096,-0.0008824734071944954,-0.077763714000193218,0.087838996904274325,9.6918597611914947
1786618075.2307141,1786618075.2300167,vesc,-0.0019380303089636616,-0.0019380303089636616,nan,nan,0.01,1,0,1,0,0,1786618075.2300167,nan,-0.00013587375060773214,-0.00028060875362378264,-0.0019380303089636616,-0.077258103413842427,0.059214718900296504,9.648674563421423
1786618075.2503815,1786618075.2500219,vesc,0.0012700253735275855,0.0012700253735275855,nan,nan,0.01,1,0,1,0,0,1786618075.2500219,nan,0.00089183595286464255,-0.0002892307376529142,0.0012700253735275855,-0.077089566551725497,0.12152363827583912,9.6344728454372444
1786618075.2703373,1786618075.269984,vesc,-0.00087856930146170981,-0.00087856930146170981,nan,nan,0.01,1,0,1,0,0,1786618075.269984,nan,-0.00014836720104183631,-0.002413992201480602,-0.00087856930146170981,-0.095967513227516399,0.059318360802169678,9.6101332245211779
1786618075.2904832,1786618075.2900317,vesc,-0.00087961024894833511,-0.00087961024894833511,nan,nan,0.01,1,0,1,0,0,1786618075.2900317,nan,-0.0012135582961138242,0.0018470832277002929,-0.00087961024894833511,-0.08193545586726092,0.073610710632838305,9.6390781126821139
1786618075.3103371,1786618075.3099785,vesc,0.00017985066102574486,0.00017985066102574486,nan,nan,0.01,1,0,1,0,0,1786618075.3099785,nan,-0.0012260522666965789,-0.00028630022015652622,0.00017985066102574486,-0.06333841309793975,0.068691338258702217,9.6871866662421553
1786618075.3302636,1786618075.329972,vesc,-0.00085748598617763668,-0.00085748598617763668,nan,nan,0.01,1,0,1,0,0,1786618075.329972,nan,0.00091682389403015165,0.00078175533353324808,-0.00085748598617763668,-0.1141151335008006,0.12661097192677673,9.5238739260831835
1786618075.3502786,1786618075.350003,vesc,0.00018661795751398149,0.00018661795751398149,nan,nan,0.01,1,0,1,0,0,1786618075.350003,nan,-0.00016086117162459086,-0.0024168550996524372,0.00018661795751398149,-0.039558398152574448,0.054281897929584488,9.7017976893395144
1786618075.3704529,1786618075.3700004,vesc,0.0023198556987301055,0.0023198556987301055,nan,nan,0.01,1,0,1,0,0,1786618075.3700004,nan,-0.00018584859264144957,-0.0013573206211536155,0.0023198556987301055,-0.12002842294307658,0.12156361861457299,9.6195986976242693
1786618075.390409,1786618075.3900378,vesc,0.00014627350519607981,0.00014627350519607981,nan,nan,0.01,1,0,1,0,0,1786618075.3900378,nan,-0.0033564344568405551,-0.003482015505954051,0.00014627350519607981,-0.091458706772489684,0.064043824878936562,9.6341500791194221
1786618075.4103544,1786618075.4099925,vesc,0.0012489419282063498,0.0012489419282063498,nan,nan,0.01,1,0,1,0,0,1786618075.4099925,nan,-0.00017335514220734541,-0.0034849793129640648,0.0012489419282063498,-0.12927076994183562,0.088111002079042322,9.5906584872360554
1786618075.4303908,1786618075.4300351,vesc,0.0012546685047729958,0.0012546685047729958,nan,nan,0.01,1,0,1,0,0,1786618075.4300351,nan,-0.00017335514220734541,-0.0013544577229817802,0.0012546685047729958,-0.10921304695867651,0.093106424805011301,9.5142599336961666
1786618075.4502757,1786618075.4499257,vesc,-0.00086034914442379708,-0.00086034914442379708,nan,nan,0.01,1,0,1,0,0,1786618075.4499257,nan,0.00091682389403015165,-0.00028350494130924384,-0.00086034914442379708,-0.073423444407283434,0.073365785376719117,9.7301941086487886
1786618075.4703872,1786618075.4700174,vesc,0.00020197492379644315,0.00020197492379644315,nan,nan,0.01,1,0,1,0,0,1786618075.4700174,nan,0.00090432992344739716,-0.0013516281143235711,0.00020197492379644315,-0.10915687714091238,0.097909309674838241,9.5094839277469418
1786618075.4902828,1786618075.489902,vesc,-0.00089783040598624762,-0.00089783040598624762,nan,nan,0.01,1,0,1,0,0,1786618075.489902,nan,-0.0022787488710371622,-0.00028340403247106507,-0.00089783040598624762,-0.067622503736810557,0.06401732968187801,9.6440108240175277
1786618075.5103724,1786618075.5099893,vesc,0.0012479011107568872,0.0012479011107568872,nan,nan,0.01,1,0,1,0,0,1786618075.5099893,nan,-0.0012385462372793334,0.00077609715651413066,0.0012479011107568872,-0.086893712227149145,0.06399218665349693,9.6533652000184702
1786618075.5305223,1786618075.5299547,vesc,0.0012546685047729958,0.0012546685047729958,nan,nan,0.01,1,0,1,0,0,1786618075.5299547,nan,-0.00017335514220734541,-0.0013544577229817802,0.0012546685047729958,-0.06232718278896332,0.11682328068235392,9.6011016148380577
1786618075.550297,1786618075.5499663,vesc,0.0012479011107568872,0.0012479011107568872,nan,nan,0.01,1,0,1,0,0,1786618075.5499663,nan,-0.0012385462372793334,0.00077609715651413066,0.0012479011107568872,-0.12431251358194739,0.05940932155455414,9.5762673194566332
1786618075.5703855,1786618075.5700216,vesc,0.0012796559257898545,0.0012796559257898545,nan,nan,0.01,1,0,1,0,0,1786618075.5700216,nan,0.0019570270479366309,-0.0013545243020090321,0.0012796559257898545,-0.058043083013817665,0.064017037321082881,9.6441230905628572
1786618075.5902922,1786618075.5899653,vesc,-0.00087856930146170981,-0.00087856930146170981,nan,nan,0.01,1,0,1,0,0,1786618075.5899653,nan,-0.00014836720104183631,-0.002413992201480602,-0.00087856930146170981,-0.081598382143027059,0.073687966972951102,9.6103402159641291
1786618075.6101973,1786618075.6099029,vesc,0.0012603948212653164,0.0012603948212653164,nan,nan,0.01,1,0,1,0,0,1786618075.6099029,nan,-0.00017335514220734541,0.00077606386700050461,0.0012603948212653164,-0.086051018780289645,0.08813541420543558,9.5815847775984366
1786618075.6301963,1786618075.6299005,vesc,-0.0019351668906431761,-0.0019351668906431761,nan,nan,0.01,1,0,1,0,0,1786618075.6299005,nan,-0.00013587375060773214,0.00078465256151601006,-0.0019351668906431761,-0.095686627593596363,0.14081307363449902,9.58640288350216
1786618075.6504416,1786618075.6500533,vesc,0.00019520762730820652,0.00019520762730820652,nan,nan,0.01,1,0,1,0,0,1786618075.6500533,nan,-0.00016086117162459086,0.00077892676517233987,0.00019520762730820652,-0.076977208643647543,0.044909066653449514,9.6246881143458722
1786618075.6703606,1786618075.6699295,vesc,0.0012575316630191562,0.0012575316630191562,nan,nan,0.01,1,0,1,0,0,1786618075.6699295,nan,-0.00017335514220734541,-0.0002891974481392882,0.0012575316630191562,-0.048182776656904736,0.097611247844204385,9.6203763773393121
1786618075.6902483,1786618075.6899126,vesc,-0.0009035568525157311,-0.0009035568525157311,nan,nan,0.01,1,0,1,0,0,1786618075.6899126,nan,-0.0022787488710371622,-0.0024139256224533496,-0.0009035568525157311,-0.096192229043672306,0.097587018443308082,9.6293939537042661
1786618075.7101936,1786618075.7098992,vesc,-0.00086034914442379708,-0.00086034914442379708,nan,nan,0.01,1,0,1,0,0,1786618075.7098992,nan,0.00091682389403015165,-0.00028350494130924384,-0.00086034914442379708,-0.10047631968254311,0.064172865624886555,9.5861409282297245
1786618075.7310984,1786618075.7304914,vesc,0.0023227191170505914,0.0023227191170505914,nan,nan,0.01,1,0,1,0,0,1786618075.7304914,nan,-0.00018584859264144957,-0.00029206034631112335,0.0023227191170505914,-0.039839292922769332,0.063797583999239293,9.72577244398326
1786618075.7509565,1786618075.750443,vesc,-0.00088819985372397866,-0.00088819985372397866,nan,nan,0.01,1,0,1,0,0,1786618075.750443,nan,-0.0012135582961138242,-0.001348698637124484,-0.00088819985372397866,-0.13299307104031666,0.10751586513412903,9.4996489105988076
1786618075.7705367,1786618075.7701252,vesc,-0.00086321230266995738,-0.00086321230266995738,nan,nan,0.01,1,0,1,0,0,1786618075.7701252,nan,0.00091682389403015165,-0.0013487652161517359,-0.00086321230266995738,-0.087230785951383005,0.044754846334019049,9.6820516412365123
1786618075.7902641,1786618075.789911,vesc,-0.00087570614321554941,-0.00087570614321554941,nan,nan,0.01,1,0,1,0,0,1786618075.789911,nan,-0.00014836720104183631,-0.0013487319266381099,-0.00087570614321554941,-0.086331904414209681,0.088071021740308453,9.6055326350490304
1786618075.8103631,1786618075.8100114,vesc,-0.00087856930146170981,-0.00087856930146170981,nan,nan,0.01,1,0,1,0,0,1786618075.8100114,nan,-0.00014836720104183631,-0.002413992201480602,-0.00087856930146170981,-0.096023683045280528,0.09283562561852321,9.615012141470288
1786618075.8304775,1786618075.830071,vesc,0.0023044988299755161,0.0023044988299755161,nan,nan,0.01,1,0,1,0,0,1786618075.830071,nan,-0.0012510396877134374,-0.0024225476064824816,0.0023044988299755161,-0.063394592051978726,0.092628561085373207,9.6920410248844746
1786618075.85059,1786618075.849973,vesc,-0.0019437566254559822,-0.0019437566254559822,nan,nan,0.01,1,0,1,0,0,1786618075.849973,nan,-0.00013587375060773214,-0.0024111293033087667,-0.0019437566254559822,-0.14713748630865009,0.088407711740998707,9.4802700676544873
1786618075.8704014,1786618075.87009,vesc,0.00016449369474328318,0.00016449369474328318,nan,nan,0.01,1,0,1,0,0,1786618075.87009,nan,-0.0022912428416199163,-0.0013515272054853921,0.00016449369474328318,-0.029866619521503601,0.063887375308443239,9.6923567745432138
1786618075.8902009,1786618075.8899062,vesc,-0.0008824734071944954,-0.0008824734071944954,nan,nan,0.01,1,0,1,0,0,1786618075.8899062,nan,-0.0012135582961138242,0.00078182295285780096,-0.0008824734071944954,-0.11467692304119037,0.064211968881235038,9.5716035800527379
1786618075.9102745,1786618075.909951,vesc,-0.00086034914442379708,-0.00086034914442379708,nan,nan,0.01,1,0,1,0,0,1786618075.909951,nan,0.00091682389403015165,-0.00028350494130924384,-0.00086034914442379708,-0.095855155319438445,0.10245427750571245,9.600668920861267
1786618075.9304724,1786618075.9299958,vesc,-0.0019312629149475528,-0.0019312629149475528,nan,nan,0.01,1,0,1,0,0,1786618075.9299958,nan,0.00092931734446425576,-0.0024111625928223929,-0.0019312629149475528,-0.10081339340677697,0.030565480593434557,9.6147887778228096
1786618075.9504397,1786618075.9500709,vesc,0.0023073619882216763,0.0023073619882216763,nan,nan,0.01,1,0,1,0,0,1786618075.9500709,nan,-0.0012510396877134374,-0.0013572873316399895,0.0023073619882216763,-0.082047813775338874,0.11669515356388871,9.6487727966485863
1786618075.9702299,1786618075.9699318,vesc,0.0012518052164896727,0.0012518052164896727,nan,nan,0.01,1,0,1,0,0,1786618075.9699318,nan,-0.00017335514220734541,-0.002419717997824272,0.0012518052164896727,-0.1147330928589545,0.073779110450832519,9.5764193470701002
1786618075.9901874,1786618075.9899173,vesc,0.00019234440404346486,0.00019234440404346486,nan,nan,0.01,1,0,1,0,0,1786618075.9899173,nan,-0.00016086117162459086,-0.00028633454996745305,0.00019234440404346486,-0.082160171683416827,0.078349221310087813,9.6582499641834829
1786618076.0103421,1786618076.0100129,vesc,0.00018948118077872315,0.00018948118077872315,nan,nan,0.01,1,0,1,0,0,1786618076.0100129,nan,-0.00016086117162459086,-0.001351594824809945,0.00018948118077872315,-0.091458706772489684,0.073623866868619103,9.6341758068693935
1786618076.0305912,1786618076.0300434,vesc,0.00020483814706118484,0.00020483814706118484,nan,nan,0.01,1,0,1,0,0,1786618076.0300434,nan,0.00090432992344739716,-0.00028636783948107899,0.00020483814706118484,-0.072749296958815712,0.049570174810188661,9.6726539958378908
1786618076.0503581,1786618076.0500288,vesc,0.00020483814706118484,0.00020483814706118484,nan,nan,0.01,1,0,1,0,0,1786618076.0500288,nan,0.00090432992344739716,-0.00028636783948107899,0.00020483814706118484,-0.086051018780289645,0.12166556116932448,9.5816748247233363
1786618076.0702965,1786618076.0699801,vesc,0.00019911170053170147,0.00019911170053170147,nan,nan,0.01,1,0,1,0,0,1786618076.0699801,nan,0.00090432992344739716,-0.0024168883891660629,0.00019911170053170147,-0.086219546506131728,0.049776581531549624,9.5958508149575437
1786618076.0902967,1786618076.0899596,vesc,-0.00087284285493222644,-0.00087284285493222644,nan,nan,0.01,1,0,1,0,0,1786618076.0899596,nan,-0.00014836720104183631,-0.00028347165179561784,-0.00087284285493222644,-0.081654561097066036,0.078465105820257008,9.6151419496633252
1786618076.1105688,1786618076.1101086,vesc,0.00021733189007890484,0.00021733189007890484,nan,nan,0.01,1,0,1,0,0,1786618076.1101086,nan,0.0019695210185193849,-0.00028640112899470504,0.00021733189007890484,-0.081991634821299897,0.083177888747535178,9.6438938796994762
1786618076.1304064,1786618076.1300576,vesc,0.0012757519500942313,0.0012757519500942313,nan,nan,0.01,1,0,1,0,0,1786618076.1300576,nan,0.00089183595286464255,0.0018412908523293707,0.0012757519500942313,-0.10960630877322419,0.10259634657959538,9.5478135974315137
1786618076.1505032,1786618076.1500878,vesc,0.00017698743776100315,0.00017698743776100315,nan,nan,0.01,1,0,1,0,0,1786618076.1500878,nan,-0.0012260522666965789,-0.001351561535296319,0.00017698743776100315,-0.05843634482836535,0.073506959095666957,9.6776767542982043
1786618076.170486,1786618076.1701257,vesc,0.00018661795751398149,0.00018661795751398149,nan,nan,0.01,1,0,1,0,0,1786618076.1701257,nan,-0.00016086117162459086,-0.0024168550996524372,0.00018661795751398149,-0.10938159295706829,0.10743785961947871,9.5286686431232965
1786618076.1904781,1786618076.1900051,vesc,-0.0019130426278724777,-0.0019130426278724777,nan,nan,0.01,1,0,1,0,0,1786618076.1900051,nan,0.0019945084395362441,-0.00028067533265103463,-0.0019130426278724777,-0.096754018584062074,0.063928123094264322,9.6772007909237345
1786618076.2110374,1786618076.2099249,vesc,-0.00087284285493222644,-0.00087284285493222644,nan,nan,0.01,1,0,1,0,0,1786618076.2099249,nan,-0.00014836720104183631,-0.00028347165179561784,-0.00087284285493222644,-0.12487430312233716,0.059280609714498667,9.6241642038010013
1786618076.2306566,1786618076.2300653,vesc,0.00019520762730820652,0.00019520762730820652,nan,nan,0.01,1,0,1,0,0,1786618076.2300653,nan,-0.00016086117162459086,0.00077892676517233987,0.00019520762730820652,-0.11478928094926832,0.07376624657584685,9.5812082168943107
1786618076.2505066,1786618076.2500656,vesc,0.00018948118077872315,0.00018948118077872315,nan,nan,0.01,1,0,1,0,0,1786618076.2500656,nan,-0.00016086117162459086,-0.001351594824809945,0.00018948118077872315,-0.025470161838279992,0.073377187447729142,9.7259665715512256
1786618076.2704763,1786618076.2700801,vesc,0.00017022014127276652,0.00017022014127276652,nan,nan,0.01,1,0,1,0,0,1786618076.2700801,nan,-0.0022912438819172173,0.00077899334419959175,0.00017022014127276652,-0.13806368530828284,0.10745163712194916,9.5235418042199171
1786618076.2905469,1786618076.2900093,vesc,0.0012728886618109084,0.0012728886618109084,nan,nan,0.01,1,0,1,0,0,1786618076.2900093,nan,0.00089183595286464255,0.00077602953718957789,0.0012728886618109084,-0.072693118004776736,0.054373077952565296,9.6678768204454855
1786618076.3104711,1786618076.3099868,vesc,-0.00085071859216152813,-0.00085071859216152813,nan,nan,0.01,1,0,1,0,0,1786618076.3099868,nan,0.0019820149891021394,-0.0013487985056653618,-0.00085071859216152813,-0.09664166067598412,0.073533929379017593,9.6676476095821045
1786618076.3306427,1786618076.3301513,vesc,0.0012364482176979203,0.0012364482176979203,nan,nan,0.01,1,0,1,0,0,1786618076.3301513,nan,-0.0012385462372793334,-0.0034849449831531381,0.0012364482176979203,-0.10543457604243134,0.088084506881983771,9.6005180626909805
1786618076.350774,1786618076.3499384,vesc,0.00019234440404346486,0.00019234440404346486,nan,nan,0.01,1,0,1,0,0,1786618076.3499384,nan,-0.00016086117162459086,-0.00028633454996745305,0.00019234440404346486,-0.10081339340677697,0.054515567295091216,9.614853097197738
1786618076.3706861,1786618076.3699749,vesc,-0.00085462269789431371,-0.00085462269789431371,nan,nan,0.01,1,0,1,0,0,1786618076.3699749,nan,0.00091682389403015165,0.001847016648673041,-0.00085462269789431371,-0.067341608966615674,0.10240187183318561,9.6201647081236388
1786618076.3904343,1786618076.3900855,vesc,0.00017698743776100315,0.00017698743776100315,nan,nan,0.01,1,0,1,0,0,1786618076.3900855,nan,-0.0012260522666965789,-0.001351561535296319,0.00017698743776100315,-0.10092575131485493,0.068859920802193386,9.6244717673574769
1786618076.4104307,1786618076.4100752,vesc,-0.00088819985372397866,-0.00088819985372397866,nan,nan,0.01,1,0,1,0,0,1786618076.4100752,nan,-0.0012135582961138242,-0.001348698637124484,-0.00088819985372397866,-0.10064486568093489,0.083294357979294631,9.6005613320886596
1786618076.4303818,1786618076.430016,vesc,0.00019234440404346486,0.00019234440404346486,nan,nan,0.01,1,0,1,0,0,1786618076.430016,nan,-0.00016086117162459086,-0.00028633454996745305,0.00019234440404346486,-0.12893369621760176,0.092978297686546085,9.5619322849498758
1786618076.4506738,1786618076.4502685,vesc,-0.00087284285493222644,-0.00087284285493222644,nan,nan,0.01,1,0,1,0,0,1786618076.4502685,nan,-0.00014836720104183631,-0.00028347165179561784,-0.00087284285493222644,-0.063731665776212587,0.059021176053921209,9.7206888744775597
1786618076.4703178,1786618076.4699869,vesc,0.0012325442420022975,0.0012325442420022975,nan,nan,0.01,1,0,1,0,0,1786618076.4699869,nan,-0.0023037368122026708,-0.00028912982881473543,0.0012325442420022975,-0.085826302964133738,0.112137011224684,9.5624901093469816
1786618076.4902043,1786618076.4899175,vesc,-0.00086607559095328035,-0.00086607559095328035,nan,nan,0.01,1,0,1,0,0,1786618076.4899175,nan,0.00091682389403015165,-0.0024140254909942277,-0.00086607559095328035,-0.086612808320679413,0.092796668542572291,9.6294945258177904
1786618076.5106673,1786618076.510155,vesc,-0.0019255363383809071,-0.0019255363383809071,nan,nan,0.01,1,0,1,0,0,1786618076.510155,nan,0.00092931734446425576,-0.00028064204313740869,-0.0019255363383809071,-0.10070103549869902,0.068911412847235454,9.6053127797310935
1786618076.5305271,1786618076.5300562,vesc,0.00018661795751398149,0.00018661795751398149,nan,nan,0.01,1,0,1,0,0,1786618076.5300562,nan,-0.00016086117162459086,-0.0024168550996524372,0.00018661795751398149,-0.068296660321553126,0.073442895536434349,9.7015123452034686
1786618076.550457,1786618076.55005,vesc,0.00019234440404346486,0.00019234440404346486,nan,nan,0.01,1,0,1,0,0,1786618076.55005,nan,-0.00016086117162459086,-0.00028633454996745305,0.00019234440404346486,-0.1328807131322387,0.10754161115665006,9.4900700015072061
1786618076.5706558,1786618076.5702968,vesc,0.00018271388429048652,0.00018271388429048652,nan,nan,0.01,1,0,1,0,0,1786618076.5702968,nan,-0.0012260522666965789,0.00077896005468596581,0.00018271388429048652,-0.034712508837039024,0.059084654891563559,9.6970778166629543
1786618076.5906,1786618076.590055,vesc,0.00019234440404346486,0.00019234440404346486,nan,nan,0.01,1,0,1,0,0,1786618076.590055,nan,-0.00016086117162459086,-0.00028633454996745305,0.00019234440404346486,-0.11935427549460886,0.092977968780651565,9.5620445514952053
1786618076.610858,1786618076.610347,vesc,-0.00087570614321554941,-0.00087570614321554941,nan,nan,0.01,1,0,1,0,0,1786618076.610347,nan,-0.00014836720104183631,-0.0013487319266381099,-0.00087570614321554941,-0.09140251868217586,0.092796851268069247,9.6294383925451257
1786618076.6304085,1786618076.6299858,vesc,0.0012728886618109084,0.0012728886618109084,nan,nan,0.01,1,0,1,0,0,1786618076.6299858,nan,0.00089183595286464255,0.00077602953718957789,0.0012728886618109084,-0.072243677236190074,0.088006190733988632,9.629650061760799
1786618076.6506801,1786618076.6500731,vesc,0.00018948118077872315,0.00018948118077872315,nan,nan,0.01,1,0,1,0,0,1786618076.6500731,nan,-0.00016086117162459086,-0.001351594824809945,0.00018948118077872315,-0.12854043440305407,0.088278378634253585,9.5283914850895144
1786618076.6706662,1786618076.6701498,vesc,0.0012757519500942313,0.0012757519500942313,nan,nan,0.01,1,0,1,0,0,1786618076.6701498,nan,0.00089183595286464255,0.0018412908523293707,0.0012757519500942313,-0.034431614066844141,0.068729052801273838,9.6731545175191513
1786618076.6905487,1786618076.6899319,vesc,0.00018948118077872315,0.00018948118077872315,nan,nan,0.01,1,0,1,0,0,1786618076.6899319,nan,-0.00016086117162459086,-0.001351594824809945,0.00018948118077872315,-0.12425634376418326,0.069002263964321742,9.5715041773823941
1786618076.7105992,1786618076.7099404,vesc,-0.00086997969668606593,-0.00086997969668606593,nan,nan,0.01,1,0,1,0,0,1786618076.7099404,nan,-0.00014836720104183631,0.00078178966334417502,-0.00086997969668606593,-0.096023683045280528,0.088045586351132243,9.6149992775953024
1786618076.7304163,1786618076.7299953,vesc,-0.00086321230266995738,-0.00086321230266995738,nan,nan,0.01,1,0,1,0,0,1786618076.7299953,nan,0.00091682389403015165,-0.0013487652161517359,-0.00086321230266995738,-0.067903407643280289,0.068742976484141849,9.6679715453431072
1786618076.7502136,1786618076.7499104,vesc,-0.00086034914442379708,-0.00086034914442379708,nan,nan,0.01,1,0,1,0,0,1786618076.7499104,nan,0.00091682389403015165,-0.00028350494130924384,-0.00086034914442379708,-0.090896898959550221,0.10728278049021256,9.586368969649925
1786618076.7702265,1786618076.7699177,vesc,0.00019234440404346486,0.00019234440404346486,nan,nan,0.01,1,0,1,0,0,1786618076.7699177,nan,-0.00016086117162459086,-0.00028633454996745305,0.00019234440404346486,-0.11050517203784782,0.078440255152671057,9.6243852285621188
1786618076.7904422,1786618076.7899277,vesc,-0.00085462269789431371,-0.00085462269789431371,nan,nan,0.01,1,0,1,0,0,1786618076.7899277,nan,0.00091682389403015165,0.001847016648673041,-0.00085462269789431371,-0.082047813775338874,0.068794943615476001,9.6486441578987296
1786618076.8105125,1786618076.8101671,vesc,-0.00086711640840274296,-0.00086711640840274296,nan,nan,0.01,1,0,1,0,0,1786618076.8101671,nan,-0.00014836720104183631,0.0018470499381866669,-0.00086711640840274296,-0.067566324782771581,0.078400274813937187,9.6392593763750938
1786618076.8302414,1786618076.8299406,vesc,0.00020197492379644315,0.00020197492379644315,nan,nan,0.01,1,0,1,0,0,1786618076.8299406,nan,0.00090432992344739716,-0.0013516281143235711,0.00020197492379644315,-0.058717239598560234,0.068652563908248254,9.7016117478738124
1786618076.8504324,1786618076.8500354,vesc,0.0012364482176979203,0.0012364482176979203,nan,nan,0.01,1,0,1,0,0,1786618076.8500354,nan,-0.0012385462372793334,-0.0034849449831531381,0.0012364482176979203,-0.11868010977359145,0.11229254716769255,9.5046202135591784
1786618076.8704376,1786618076.87005,vesc,0.00018948118077872315,0.00018948118077872315,nan,nan,0.01,1,0,1,0,0,1786618076.87005,nan,-0.00016086117162459086,-0.001351594824809945,0.00018948118077872315,-0.054039887145141741,0.039886527463732335,9.7111707764313451
1786618076.8904455,1786618076.8900378,vesc,-0.00085748598617763668,-0.00085748598617763668,nan,nan,0.01,1,0,1,0,0,1786618076.8900378,nan,0.00091682389403015165,0.00078175533353324808,-0.00085748598617763668,-0.081429845280910129,0.092886642577273193,9.5960227231050794
1786618076.9104335,1786618076.9100788,vesc,0.00020197492379644315,0.00020197492379644315,nan,nan,0.01,1,0,1,0,0,1786618076.9100788,nan,0.00090432992344739716,-0.0013516281143235711,0.00020197492379644315,-0.086725166228757367,0.083190898802918412,9.6390477071594205
1786618076.9304197,1786618076.9300318,vesc,-0.00086893874919944086,-0.00086893874919944086,nan,nan,0.01,1,0,1,0,0,1786618076.9300318,nan,0.00091682389403015165,-0.0034792868061340205,-0.00086893874919944086,-0.11011192849584983,0.064160330655795406,9.590818700951786
1786618076.9503057,1786618076.9499583,vesc,-0.00087570614321554941,-0.00087570614321554941,nan,nan,0.01,1,0,1,0,0,1786618076.9499583,nan,-0.00014836720104183631,-0.0013487319266381099,-0.00087570614321554941,-0.05877341855259921,0.083009781290336093,9.7064403787661604
1786618076.9703512,1786618076.9699543,vesc,-0.0019380303089636616,-0.0019380303089636616,nan,nan,0.01,1,0,1,0,0,1786618076.9699543,nan,-0.00013587375060773214,-0.00028060875362378264,-0.0019380303089636616,-0.13282454331447457,0.10276445403679446,9.4852670983648295
1786618076.9904222,1786618076.9899867,vesc,-0.0008824734071944954,-0.0008824734071944954,nan,nan,0.01,1,0,1,0,0,1786618076.9899867,nan,-0.0012135582961138242,0.00078182295285780096,-0.0008824734071944954,-0.053646634466868903,0.063926770925586851,9.6777071598208977
1786618077.0101337,1786618077.0099101,vesc,0.00019234440404346486,0.00019234440404346486,nan,nan,0.01,1,0,1,0,0,1786618077.0099101,nan,-0.00016086117162459086,-0.00028633454996745305,0.00019234440404346486,-0.09140251868217586,0.092796851268069247,9.6294383925451257
1786618077.0302327,1786618077.0299578,vesc,-0.00088143258974503278,-0.00088143258974503278,nan,nan,0.01,1,0,1,0,0,1786618077.0299578,nan,-0.00014836720104183631,-0.0034792535166203948,-0.00088143258974503278,-0.091627234498331767,0.064005196708880163,9.6485190274784145
1786618077.0502036,1786618077.0499015,vesc,0.00016449369474328318,0.00016449369474328318,nan,nan,0.01,1,0,1,0,0,1786618077.0499015,nan,-0.0022912428416199163,-0.0013515272054853921,0.00016449369474328318,-0.048182776656904736,0.1119813108287282,9.6204149689642691
1786618077.0701866,1786618077.0699348,vesc,0.0023073619882216763,0.0023073619882216763,nan,nan,0.01,1,0,1,0,0,1786618077.0699348,nan,-0.0012510396877134374,-0.0013572873316399895,0.0023073619882216763,-0.10498514441011952,0.073817446260093789,9.5621626652564373
1786618077.0903955,1786618077.0900097,vesc,0.0012642990570352647,0.0012642990570352647,nan,nan,0.01,1,0,1,0,0,1786618077.0900097,nan,0.00089183595286464255,-0.0024197512873378982,0.0012642990570352647,-0.072468393052345981,0.083164695966654989,9.6487950160690161
1786618077.11009,1786618077.109885,vesc,0.00018661795751398149,0.00018661795751398149,nan,nan,0.01,1,0,1,0,0,1786618077.109885,nan,-0.00016086117162459086,-0.0024168550996524372,0.00018661795751398149,-0.10103812749548258,0.078414198496805199,9.6340764041990496
1786618077.130187,1786618077.1299057,vesc,0.00023268885636136652,0.00023268885636136652,nan,nan,0.01,1,0,1,0,0,1786618077.1299057,nan,0.0030347123736656984,0.00077882585633416094,0.00023268885636136652,-0.12408779776579149,0.088200976113743224,9.5571866845233444
1786618077.150265,1786618077.1500039,vesc,0.00021446866681416318,0.00021446866681416318,nan,nan,0.01,1,0,1,0,0,1786618077.1500039,nan,0.0019695210185193849,-0.0013516614038371971,0.00021446866681416318,-0.06824048136751415,0.04950567270976336,9.6966579865611493
1786618077.1701992,1786618077.1699307,vesc,0.00018948118077872315,0.00018948118077872315,nan,nan,0.01,1,0,1,0,0,1786618077.1699307,nan,-0.00016086117162459086,-0.001351594824809945,0.00018948118077872315,-0.076471598057296752,0.10729518755145584,9.5817484996437088
1786618077.1904204,1786618077.1900291,vesc,-0.003008943949450255,-0.003008943949450255,nan,nan,0.01,1,0,1,0,0,1786618077.1900291,nan,-0.00012337978002497762,-0.0024082664051369314,-0.003008943949450255,-0.086388092504523506,0.078478115875640242,9.6102969465664501
1786618077.2105229,1786618077.2100935,vesc,0.00020770137032592652,0.00020770137032592652,nan,nan,0.01,1,0,1,0,0,1786618077.2100935,nan,0.00090432992344739716,0.00077889243536141293,0.00020770137032592652,-0.09140251868217586,0.088006812000678281,9.62942552867014
1786618077.2305186,1786618077.230113,vesc,-0.00091318727474083738,-0.00091318727474083738,nan,nan,0.01,1,0,1,0,0,1786618077.230113,nan,-0.0033439404862578002,-0.0013486310177999311,-0.00091318727474083738,-0.081148950510715245,0.083370993052717779,9.5720479684613338
1786618077.2503877,1786618077.2500627,vesc,-0.00084785543391536762,-0.00084785543391536762,nan,nan,0.01,1,0,1,0,0,1786618077.2500627,nan,0.0019820149891021394,-0.00028353823082286983,-0.00084785543391536762,-0.049474892599801201,0.063785012485048753,9.7304502167053215
1786618077.27022,1786618077.269918,vesc,0.0023198556987301055,0.0023198556987301055,nan,nan,0.01,1,0,1,0,0,1786618077.269918,nan,-0.00018584859264144957,-0.0013573206211536155,0.0023198556987301055,-0.10938159295706829,0.11701790160916126,9.5286943708732679
1786618077.2903886,1786618077.2900579,vesc,0.00021160544354942147,0.00021160544354942147,nan,nan,0.01,1,0,1,0,0,1786618077.2900579,nan,0.0019695210185193849,-0.0024169227189769897,0.00021160544354942147,-0.072636929914462911,0.035225857848185882,9.6630353256781518
1786618077.3108656,1786618077.3105488,vesc,-0.00088819985372397866,-0.00088819985372397866,nan,nan,0.01,1,0,1,0,0,1786618077.3105488,nan,-0.0012135582961138242,-0.001348698637124484,-0.00088819985372397866,-0.071850424557917236,0.083306308226795522,9.5961092619004376
1786618077.3302991,1786618077.3300202,vesc,0.00019624847726695978,0.00019624847726695978,nan,nan,0.01,1,0,1,0,0,1786618077.3300202,nan,0.00090432992344739716,-0.0034821497043058562,0.00019624847726695978,-0.077426640275959357,0.073546208532413004,9.663083272848553
1786618077.3503411,1786618077.3499942,vesc,0.0012575316630191562,0.0012575316630191562,nan,nan,0.01,1,0,1,0,0,1786618077.3499942,nan,-0.00017335514220734541,-0.0002891974481392882,0.0012575316630191562,-0.1187924676816694,0.09310671716580643,9.5141476671508372
1786618077.3703759,1786618077.3700497,vesc,-0.00087284285493222644,-0.00087284285493222644,nan,nan,0.01,1,0,1,0,0,1786618077.3700497,nan,-0.00014836720104183631,-0.00028347165179561784,-0.00087284285493222644,-0.039277503382379564,0.078296377096368275,9.6779141512638489
1786618077.3903327,1786618077.3900471,vesc,0.00017698743776100315,0.00017698743776100315,nan,nan,0.01,1,0,1,0,0,1786618077.3900471,nan,-0.0012260522666965789,-0.001351561535296319,0.00017698743776100315,-0.11890482558974735,0.10745103412780921,9.5237663373105761
1786618077.4107966,1786618077.410363,vesc,0.0012575316630191562,0.0012575316630191562,nan,nan,0.01,1,0,1,0,0,1786618077.410363,nan,-0.00017335514220734541,-0.0002891974481392882,0.0012575316630191562,-0.072468393052345981,0.083164695966654989,9.6487950160690161
1786618077.4301636,1786618077.4299304,vesc,0.0012325442420022975,0.0012325442420022975,nan,nan,0.01,1,0,1,0,0,1786618077.4299304,nan,-0.0023037368122026708,-0.00028912982881473543,0.0012325442420022975,-0.071625708741761329,0.092937842261520132,9.5769760020240255
1786618077.4503644,1786618077.4500377,vesc,0.00014913672846082149,0.00014913672846082149,nan,nan,0.01,1,0,1,0,0,1786618077.4500377,nan,-0.0033564344568405551,-0.0024167552311115592,0.00014913672846082149,-0.12442487149002535,0.07375367506165631,9.5858859896163722
1786618077.4702582,1786618077.4700115,vesc,0.0012632581095486394,0.0012632581095486394,nan,nan,0.01,1,0,1,0,0,1786618077.4700115,nan,-0.00017335514220734541,0.0018413241418429966,0.0012632581095486394,-0.048856924105372457,0.08308670872455437,9.6778147485935051
1786618077.4903586,1786618077.4900336,vesc,0.00019624847726695978,0.00019624847726695978,nan,nan,0.01,1,0,1,0,0,1786618077.4900336,nan,0.00090432992344739716,-0.0034821497043058562,0.00019624847726695978,-0.12408779776579149,0.088200976113743224,9.5571866845233444
1786618077.5102158,1786618077.509963,vesc,0.00020483814706118484,0.00020483814706118484,nan,nan,0.01,1,0,1,0,0,1786618077.509963,nan,0.00090432992344739716,-0.00028636783948107899,0.00020483814706118484,-0.077314282367881404,0.073571936282384343,9.653503194313771
1786618077.5317919,1786618077.5309203,vesc,0.0012671622152814249,0.0012671622152814249,nan,nan,0.01,1,0,1,0,0,1786618077.5309203,nan,0.00089183595286464255,-0.0013544910124954062,0.0012671622152814249,-0.077819892954232195,0.063876046327631997,9.6965843116407768
1786618077.5501931,1786618077.5499098,vesc,0.0012603948212653164,0.0012603948212653164,nan,nan,0.01,1,0,1,0,0,1786618077.5499098,nan,-0.00017335514220734541,0.00077606386700050461,0.0012603948212653164,-0.099746002416311264,0.10266041013882798,9.5239780065262494
1786618077.5704577,1786618077.5700743,vesc,0.00018844033081996989,0.00018844033081996989,nan,nan,0.01,1,0,1,0,0,1786618077.5700743,nan,-0.0012260522666965789,0.0029094806043709499,0.00018844033081996989,-0.058885776460677164,0.044663849036535197,9.7159163768578765
1786618077.5906413,1786618077.5901353,vesc,0.00019520762730820652,0.00019520762730820652,nan,nan,0.01,1,0,1,0,0,1786618077.5901353,nan,-0.00016086117162459086,0.00077892676517233987,0.00019520762730820652,-0.06215864592684639,0.11207188785756905,9.5867186331608991
1786618077.6104579,1786618077.6100676,vesc,0.00020197492379644315,0.00020197492379644315,nan,nan,0.01,1,0,1,0,0,1786618077.6100676,nan,0.00090432992344739716,-0.0013516281143235711,0.00020197492379644315,-0.072356035144268027,0.06882037900465221,9.6391775153524577
1786618077.6304672,1786618077.6300526,vesc,0.00018948118077872315,0.00018948118077872315,nan,nan,0.01,1,0,1,0,0,1786618077.6300526,nan,-0.00016086117162459086,-0.001351594824809945,0.00018948118077872315,-0.082216350637455804,0.083126396702493111,9.6630528673258596
1786618077.6502223,1786618077.6499159,vesc,0.00017412421449626149,0.00017412421449626149,nan,nan,0.01,1,0,1,0,0,1786618077.6499159,nan,-0.0012260522666965789,-0.0024168218101388111,0.00017412421449626149,-0.11383422959433087,0.097935220150306534,9.4998477159394952
1786618077.6708949,1786618077.6703775,vesc,0.00018271388429048652,0.00018271388429048652,nan,nan,0.01,1,0,1,0,0,1786618077.6703775,nan,-0.0012260522666965789,0.00077896005468596581,0.00018271388429048652,-0.059054313322794094,0.030255176154504682,9.7302467335919118
1786618077.6903422,1786618077.6900253,vesc,-0.0019630177299805205,-0.0019630177299805205,nan,nan,0.01,1,0,1,0,0,1786618077.6900253,nan,-0.0022662549004544073,-0.00028054113429922987,-0.0019630177299805205,-0.11912954140590326,0.10739954208276714,9.5429253249369594
1786618077.7105007,1786618077.7100065,vesc,-0.00087570614321554941,-0.00087570614321554941,nan,nan,0.01,1,0,1,0,0,1786618077.7100065,nan,-0.00014836720104183631,-0.0013487319266381099,-0.00087570614321554941,-0.062945151283392065,0.073571497741191649,9.6536715941317652
1786618077.7306941,1786618077.7300138,vesc,0.00019234440404346486,0.00019234440404346486,nan,nan,0.01,1,0,1,0,0,1786618077.7300138,nan,-0.00016086117162459086,-0.00028633454996745305,0.00019234440404346486,-0.10571546167635137,0.059280024992908409,9.6243899063348408
1786618077.7505066,1786618077.750149,vesc,-0.00090746082821135401,-0.00090746082821135401,nan,nan,0.01,1,0,1,0,0,1786618077.750149,nan,-0.0033439415265551012,0.00078188953188505295,-0.00090746082821135401,-0.048576029335177573,0.083151064644582107,9.6538657216997308
1786618077.7703092,1786618077.770056,vesc,-0.00086607559095328035,-0.00086607559095328035,nan,nan,0.01,1,0,1,0,0,1786618077.770056,nan,0.00091682389403015165,-0.0024140254909942277,-0.00086607559095328035,-0.13344250267262847,0.093042799786971386,9.5379282942266173
1786618077.790436,1786618077.7900889,vesc,0.00022019511334364655,0.00022019511334364655,nan,nan,0.01,1,0,1,0,0,1786618077.7900889,nan,0.0019695210185193849,0.00077885914584778699,0.00022019511334364655,-0.04863220828921655,0.073558158779913896,9.6586300332171504
1786618077.8103871,1786618077.8100364,vesc,0.00018948118077872315,0.00018948118077872315,nan,nan,0.01,1,0,1,0,0,1786618077.8100364,nan,-0.00016086117162459086,-0.001351594824809945,0.00018948118077872315,-0.10532221813435338,0.083320231909663534,9.5909262897243934
1786618077.8304844,1786618077.8300951,vesc,-0.00086893874919944086,-0.00086893874919944086,nan,nan,0.01,1,0,1,0,0,1786618077.8300951,nan,0.00091682389403015165,-0.0034792868061340205,-0.00086893874919944086,-0.091290160774097906,0.068872455771284535,9.6197939946354154
1786618077.850343,1786618077.8499792,vesc,0.0012671622152814249,0.0012671622152814249,nan,nan,0.01,1,0,1,0,0,1786618077.8499792,nan,0.00089183595286464255,-0.0013544910124954062,0.0012671622152814249,-0.076359240149218799,0.092950888862002756,9.5721298294839698
1786618077.8705142,1786618077.8700988,vesc,0.0012575316630191562,0.0012575316630191562,nan,nan,0.01,1,0,1,0,0,1786618077.8700988,nan,-0.00017335514220734541,-0.0002891974481392882,0.0012575316630191562,-0.10520986022627543,0.073765954215051721,9.5813204834396402
1786618077.8917913,1786618077.8912363,vesc,0.0023198556987301055,0.0023198556987301055,nan,nan,0.01,1,0,1,0,0,1786618077.8912363,nan,-0.00018584859264144957,-0.0013573206211536155,0.0023198556987301055,-0.067847228689241312,0.092705963605883568,9.6632469948938251
1786618077.91061,1786618077.9102526,vesc,0.0012546685047729958,0.0012546685047729958,nan,nan,0.01,1,0,1,0,0,1786618077.9102526,nan,-0.00017335514220734541,-0.0013544577229817802,0.0012546685047729958,-0.095742797411360492,0.059369852847211746,9.5909742368947946
1786618077.9305155,1786618077.9301078,vesc,0.0012450379525107266,0.0012450379525107266,nan,nan,0.01,1,0,1,0,0,1786618077.9301078,nan,-0.0012385462372793334,-0.00028916311832836143,0.0012450379525107266,-0.10515367213596161,0.07377881809003739,9.5765316136154297
1786618077.9505715,1786618077.9501598,vesc,-0.00088819985372397866,-0.00088819985372397866,nan,nan,0.01,1,0,1,0,0,1786618077.9501598,nan,-0.0012135582961138242,-0.001348698637124484,-0.00088819985372397866,-0.06840901822963108,0.063837089251681078,9.7110666959882792
1786618077.9708135,1786618077.9699833,vesc,0.00019520762730820652,0.00019520762730820652,nan,nan,0.01,1,0,1,0,0,1786618077.9699833,nan,-0.00016086117162459086,0.00077892676517233987,0.00019520762730820652,-0.10459188259557184,0.11222771616137273,9.5287376402709469
1786618077.9902592,1786618077.9899337,vesc,-0.00086997969668606593,-0.00086997969668606593,nan,nan,0.01,1,0,1,0,0,1786618077.9899337,nan,-0.00014836720104183631,0.00078178966334417502,-0.00086997969668606593,-0.096473132950142038,0.083152599538756533,9.6533043889730834
1786618078.0102773,1786618078.0099809,vesc,-0.00087570614321554941,-0.00087570614321554941,nan,nan,0.01,1,0,1,0,0,1786618078.0099809,nan,-0.00014836720104183631,-0.0013487319266381099,-0.00087570614321554941,-0.071906603511956213,0.073713402362127312,9.6008724039746767
1786618078.0307891,1786618078.0300834,vesc,0.0012575316630191562,0.0012575316630191562,nan,nan,0.01,1,0,1,0,0,1786618078.0300834,nan,-0.00017335514220734541,-0.0002891974481392882,0.0012575316630191562,-0.095798967229124621,0.097677138658406548,9.5958671871620709
1786618078.0506778,1786618078.0503149,vesc,-0.00086607559095328035,-0.00086607559095328035,nan,nan,0.01,1,0,1,0,0,1786618078.0503149,nan,0.00091682389403015165,-0.0024140254909942277,-0.00086607559095328035,-0.05877341855259921,0.054269618776189077,9.7063631955162464
1786618078.071166,1786618078.0702875,vesc,0.00017698743776100315,0.00017698743776100315,nan,nan,0.01,1,0,1,0,0,1786618078.0702875,nan,-0.0012260522666965789,-0.001351561535296319,0.00017698743776100315,-0.12352600822540172,0.12185987146278698,9.509379847303876
1786618078.0902264,1786618078.089951,vesc,-0.00085748598617763668,-0.00085748598617763668,nan,nan,0.01,1,0,1,0,0,1786618078.089951,nan,0.00091682389403015165,0.00078175533353324808,-0.00085748598617763668,-0.054096066099180717,0.059033784113211141,9.7160111017554982
1786618078.1104133,1786618078.1100473,vesc,-0.00084499214563204465,-0.00084499214563204465,nan,nan,0.01,1,0,1,0,0,1786618078.1100473,nan,0.0019820149891021394,0.00078172204401962214,-0.00084499214563204465,-0.11033664431200574,0.10721900929177508,9.6100934634530404
1786618078.1308398,1786618078.1304388,vesc,0.00017985066102574486,0.00017985066102574486,nan,nan,0.01,1,0,1,0,0,1786618078.1304388,nan,-0.0012260522666965789,-0.00028630022015652622,0.00017985066102574486,-0.067285430012576697,0.092834711991038432,9.615350110549457
1786618078.1503701,1786618078.1500113,vesc,0.00018948118077872315,0.00018948118077872315,nan,nan,0.01,1,0,1,0,0,1786618078.1500113,nan,-0.00016086117162459086,-0.001351594824809945,0.00018948118077872315,-0.10075722358901285,0.059318506982567243,9.6100770912485132
1786618078.1705339,1786618078.1701982,vesc,0.002313088564788322,0.002313088564788322,nan,nan,0.01,1,0,1,0,0,1786618078.1701982,nan,-0.0012510396877134374,0.00077323425834229539,0.002313088564788322,-0.03409454034261028,0.087966393120751718,9.6444680763011092
1786618078.1905346,1786618078.1900265,vesc,0.00020197492379644315,0.00020197492379644315,nan,nan,0.01,1,0,1,0,0,1786618078.1900265,nan,0.00090432992344739716,-0.0013516281143235711,0.00020197492379644315,-0.10977485477161597,0.064237550450808811,9.5620796347906207
1786618078.210355,1786618078.2100582,vesc,0.0012546685047729958,0.0012546685047729958,nan,nan,0.01,1,0,1,0,0,1786618078.2100582,nan,-0.00017335514220734541,-0.0013544577229817802,0.0012546685047729958,-0.067791040598927488,0.063978701511821612,9.6583797723765201
1786618078.2302847,1786618078.2300088,vesc,-0.0008824734071944954,-0.0008824734071944954,nan,nan,0.01,1,0,1,0,0,1786618078.2300088,nan,-0.0012135582961138242,0.00078182295285780096,-0.0008824734071944954,-0.081317487372832176,0.059382241635905331,9.5863525974453978
1786618078.2516859,1786618078.2513468,vesc,-0.0019562503359644118,-0.0019562503359644118,nan,nan,0.01,1,0,1,0,0,1786618078.2513468,nan,-0.0012010648456797202,-0.0024110960137951405,-0.0019562503359644118,-0.081879276913221943,0.040093409271385383,9.6341980262898232
1786618078.2704091,1786618078.2700269,vesc,0.0012700253735275855,0.0012700253735275855,nan,nan,0.01,1,0,1,0,0,1786618078.2700269,nan,0.00089183595286464255,-0.0002892307376529142,0.0012700253735275855,-0.062383361743002297,0.1263904587970508,9.6059162124122395
1786618078.290375,1786618078.290041,vesc,0.0012796559257898545,0.0012796559257898545,nan,nan,0.01,1,0,1,0,0,1786618078.290041,nan,0.0019570270479366309,-0.0013545243020090321,0.0012796559257898545,-0.11490163885734628,0.04021035358943692,9.5906982483041929
1786618078.3103967,1786618078.3100779,vesc,0.00019234440404346486,0.00019234440404346486,nan,nan,0.01,1,0,1,0,0,1786618078.3100779,nan,-0.00016086117162459086,-0.00028633454996745305,0.00019234440404346486,-0.072468393052345981,0.078374656699264023,9.6487821521940305
1786618078.3303938,1786618078.3300443,vesc,0.00017985066102574486,0.00017985066102574486,nan,nan,0.01,1,0,1,0,0,1786618078.3300443,nan,-0.0012260522666965789,-0.00028630022015652622,0.00017985066102574486,-0.072580750960423934,0.08313893167158426,9.6583750946037981
1786618078.3503425,1786618078.3500187,vesc,0.0023352125674846952,0.0023352125674846952,nan,nan,0.01,1,0,1,0,0,1786618078.3500187,nan,0.00087934250243053844,-0.0002920936358247494,0.0023352125674846952,-0.11417130331856473,0.088277940093060892,9.5285610543506891
1786618078.3705933,1786618078.3701401,vesc,0.00019520762730820652,0.00019520762730820652,nan,nan,0.01,1,0,1,0,0,1786618078.3701401,nan,-0.00016086117162459086,0.00077892676517233987,0.00019520762730820652,-0.063787844730251564,0.049428270189252999,9.7254531859949793
1786618078.3903992,1786618078.3900354,vesc,0.00016449369474328318,0.00016449369474328318,nan,nan,0.01,1,0,1,0,0,1786618078.3900354,nan,-0.0022912428416199163,-0.0013515272054853921,0.00016449369474328318,-0.10481659841172775,0.10738620312148939,9.5478825945791641
1786618078.4108176,1786618078.4100399,vesc,0.0012575316630191562,0.0012575316630191562,nan,nan,0.01,1,0,1,0,0,1786618078.4100399,nan,-0.00017335514220734541,-0.0002891974481392882,0.0012575316630191562,-0.082272529591494781,0.044793328323677883,9.6677388261501847
1786618078.4304762,1786618078.4301014,vesc,-0.00086034914442379708,-0.00086034914442379708,nan,nan,0.01,1,0,1,0,0,1786618078.4301014,nan,0.00091682389403015165,-0.00028350494130924384,-0.00086034914442379708,-0.077258103413842427,0.092744884136735095,9.6487646105463227
1786618078.4503148,1786618078.4500034,vesc,0.00017698743776100315,0.00017698743776100315,nan,nan,0.01,1,0,1,0,0,1786618078.4500034,nan,-0.0012260522666965789,-0.001351561535296319,0.00017698743776100315,-0.10960630877322419,0.069066181343156785,9.547723550306614
1786618078.4703722,1786618078.4700313,vesc,0.00016449369474328318,0.00016449369474328318,nan,nan,0.01,1,0,1,0,0,1786618078.4700313,nan,-0.0022912428416199163,-0.0013515272054853921,0.00016449369474328318,-0.035049582561272885,0.092537563787889354,9.7259057605058388
1786618078.4904091,1786618078.4900808,vesc,0.00017412421449626149,0.00017412421449626149,nan,nan,0.01,1,0,1,0,0,1786618078.4900808,nan,-0.0012260522666965789,-0.0024168218101388111,0.00017412421449626149,-0.14753074812319777,0.10268767278297375,9.5138365952648201
1786618078.5107739,1786618078.5101395,vesc,0.00017126099123151978,0.00017126099123151978,nan,nan,0.01,1,0,1,0,0,1786618078.5101395,nan,-0.0012260522666965789,-0.0034820820849813029,0.00017126099123151978,-0.067734861644888511,0.068781604654198247,9.6536025969841148
1786618078.5302255,1786618078.5299766,vesc,-0.00087284285493222644,-0.00087284285493222644,nan,nan,0.01,1,0,1,0,0,1786618078.5299766,nan,-0.00014836720104183631,-0.00028347165179561784,-0.00087284285493222644,-0.096416944859828213,0.068795382156668694,9.6484757580807354
1786618078.5502198,1786618078.5499666,vesc,0.00019234440404346486,0.00019234440404346486,nan,nan,0.01,1,0,1,0,0,1786618078.5499666,nan,-0.00016086117162459086,-0.00028633454996745305,0.00019234440404346486,-0.067116893150459767,0.10724338487306895,9.6010197538154216
1786618078.570524,1786618078.5702169,vesc,0.00020197492379644315,0.00020197492379644315,nan,nan,0.01,1,0,1,0,0,1786618078.5702169,nan,0.00090432992344739716,-0.0013516281143235711,0.00020197492379644315,-0.1049289563198057,0.088200391392152966,9.5574112176140034
1786618078.5904448,1786618078.590059,vesc,-0.00088819985372397866,-0.00088819985372397866,nan,nan,0.01,1,0,1,0,0,1786618078.590059,nan,-0.0012135582961138242,-0.001348698637124484,-0.00088819985372397866,-0.049306355737684271,0.073403682644787693,9.7161058266531199
1786618078.6107922,1786618078.6103303,vesc,-0.00088533669547781837,-0.00088533669547781837,nan,nan,0.01,1,0,1,0,0,1786618078.6103303,nan,-0.0012135582961138242,-0.00028343732198469102,-0.00088533669547781837,-0.10949395086514624,0.093042068884983564,9.5382089605899409
1786618078.6306832,1786618078.6302633,vesc,0.0012728886618109084,0.0012728886618109084,nan,nan,0.01,1,0,1,0,0,1786618078.6302633,nan,0.00089183595286464255,0.00077602953718957789,0.0012728886618109084,-0.086893712227149145,0.059202147386105963,9.6533523361434845
1786618078.6505971,1786618078.649967,vesc,-0.0008824734071944954,-0.0008824734071944954,nan,nan,0.01,1,0,1,0,0,1786618078.649967,nan,-0.0012135582961138242,0.00078182295285780096,-0.0008824734071944954,-0.095237177688734853,0.088225826781329175,9.5479445750677314
1786618078.6703143,1786618078.670037,vesc,-0.00086893874919944086,-0.00086893874919944086,nan,nan,0.01,1,0,1,0,0,1786618078.670037,nan,0.00091682389403015165,-0.0034792868061340205,-0.00086893874919944086,-0.072356035144268027,0.073610381726943785,9.6391903792274434
1786618078.6905353,1786618078.6901722,vesc,0.00018948118077872315,0.00018948118077872315,nan,nan,0.01,1,0,1,0,0,1786618078.6901722,nan,-0.00016086117162459086,-0.001351594824809945,0.00018948118077872315,-0.06232718278896332,0.0880831547133063,9.6010244315881437
1786618078.7104373,1786618078.7101636,vesc,0.0023294862509923749,0.0023294862509923749,nan,nan,0.01,1,0,1,0,0,1786618078.7101636,nan,0.00087934250243053844,-0.0024226141855097335,0.0023294862509923749,-0.090840729141786092,0.068975476406468061,9.5814760193826487
1786618078.7305539,1786618078.7302673,vesc,0.00017698743776100315,0.00017698743776100315,nan,nan,0.01,1,0,1,0,0,1786618078.7302673,nan,-0.0012260522666965789,-0.001351561535296319,0.00017698743776100315,-0.072412214098307004,0.068807515129666541,9.6439675546198487
1786618078.7509,1786618078.7502108,vesc,-0.00088533669547781837,-0.00088533669547781837,nan,nan,0.01,1,0,1,0,0,1786618078.7502108,nan,-0.0012135582961138242,-0.00028343732198469102,-0.00088533669547781837,-0.073086370683049573,0.059072960459758406,9.7014176203058469
