ros_time,msg_stamp,selected_mode,selected_wz,vesc_wz,livox_wz,livox_wz_raw,livox_bias_wz,vesc_weight,livox_weight,vesc_valid,livox_valid,fallback_used,vesc_header_stamp,livox_header_stamp,angular_velocity_x,angular_velocity_y,angular_velocity_z,linear_acceleration_x,linear_acceleration_y,linear_acceleration_z
1786615453.4520154,1786615453.4496582,vesc,0.0012479011107568872,0.0012479011107568872,nan,nan,0.01,1,0,1,0,0,1786615453.4496582,nan,-0.0012385462372793334,0.00077609715651413066,0.0012479011107568872,-0.057088040795155059,0.059445866653945245,9.5626854063581277
1786615453.4741619,1786615453.473877,vesc,0.0012546685047729958,0.0012546685047729958,nan,nan,0.01,1,0,1,0,0,1786615453.473877,nan,-0.00017335514220734541,-0.0013544577229817802,0.0012546685047729958,-0.043617772975289348,0.020919255428754724,9.6393856762385894
1786615453.4913275,1786615453.4909091,vesc,0.0012700253735275855,0.0012700253735275855,nan,nan,0.01,1,0,1,0,0,1786615453.4909091,nan,0.00089183595286464255,-0.0002892307376529142,0.0012700253735275855,-0.05742511451938892,0.040208562879566756,9.5913718475761698
1786615453.5143991,1786615453.513731,vesc,0.00021056459359066821,0.00021056459359066821,nan,nan,0.01,1,0,1,0,0,1786615453.513731,nan,0.00090432992344739716,0.001844153750501206,0.00021056459359066821,-0.052747762065970427,0.035392613136707496,9.6009940260654503
1786615453.5368145,1786615453.5337923,vesc,0.00020197492379644315,0.00020197492379644315,nan,nan,0.01,1,0,1,0,0,1786615453.5337923,nan,0.00090432992344739716,-0.0013516281143235711,0.00020197492379644315,-0.090896898959550221,0.011482324048287751,9.5861116921502116
1786615453.5583382,1786615453.5567319,vesc,-0.00086997969668606593,-0.00086997969668606593,nan,nan,0.01,1,0,1,0,0,1786615453.5567319,nan,-0.00014836720104183631,0.00078178966334417502,-0.00086997969668606593,-0.024964551251929201,0.030382828186677813,9.6827439515993774
1786615453.5739892,1786615453.5737019,vesc,0.00019520762730820652,0.00019520762730820652,nan,nan,0.01,1,0,1,0,0,1786615453.5737019,nan,-0.00016086117162459086,0.00077892676517233987,0.00019520762730820652,-0.0853206832415081,0.088302754215547452,9.5193177754518956
1786615453.5959482,1786615453.5956869,vesc,0.00022019511334364655,0.00022019511334364655,nan,nan,0.01,1,0,1,0,0,1786615453.5956869,nan,0.0019695210185193849,0.00077885914584778699,0.00022019511334364655,-0.048295125428707841,-0.0077949966099239987,9.6296734506244093
1786615453.6148083,1786615453.6146333,vesc,0.00019520762730820652,0.00019520762730820652,nan,nan,0.01,1,0,1,0,0,1786615453.6146333,nan,-0.00016086117162459086,0.00077892676517233987,0.00019520762730820652,-0.076359240149218799,0.040260639646199081,9.5719883268591275
1786615453.6321573,1786615453.6319535,vesc,0.00021446866681416318,0.00021446866681416318,nan,nan,0.01,1,0,1,0,0,1786615453.6319535,nan,0.0019695210185193849,-0.0013516614038371971,0.00021446866681416318,-0.062383361743002297,0.011429954920860297,9.6056074794125834
1786615453.6539071,1786615453.6535907,vesc,0.0012421747942645664,0.0012421747942645664,nan,nan,0.01,1,0,1,0,0,1786615453.6535907,nan,-0.0012385462372793334,-0.0013544244334681541,0.0012421747942645664,-0.029641903705347694,0.04956882264151119,9.6731591952918734
1786615453.675246,1786615453.6736357,vesc,0.0012700253735275855,0.0012700253735275855,nan,nan,0.01,1,0,1,0,0,1786615453.6736357,nan,0.00089183595286464255,-0.0002892307376529142,0.0012700253735275855,-0.099240382693685625,0.030925961453828421,9.4806782033244872
1786615453.6941102,1786615453.6937091,vesc,0.00019520762730820652,0.00019520762730820652,nan,nan,0.01,1,0,1,0,0,1786615453.6937091,nan,-0.00016086117162459086,0.00077892676517233987,0.00019520762730820652,-0.029698082659386671,0.054345961488817096,9.67796209843425
1786615453.7141867,1786615453.7136543,vesc,0.00018271388429048652,0.00018271388429048652,nan,nan,0.01,1,0,1,0,0,1786615453.7136543,nan,-0.0012260522666965789,0.00077896005468596581,0.00018271388429048652,-0.090896898959550221,0.040222450017335376,9.5861888754001257
1786615453.7345839,1786615453.7336271,vesc,0.00017698743776100315,0.00017698743776100315,nan,nan,0.01,1,0,1,0,0,1786615453.7336271,nan,-0.0012260522666965789,-0.001351561535296319,0.00017698743776100315,-0.056975682887077106,0.045101549691942466,9.5530667361983888
1786615453.7547417,1786615453.7538936,vesc,0.00017985066102574486,0.00017985066102574486,nan,nan,0.01,1,0,1,0,0,1786615453.7538936,nan,-0.0012260522666965789,-0.00028630022015652622,0.00017985066102574486,-0.071850424557917236,0.0066659357642357975,9.5959034399006669
1786615453.7745957,1786615453.7741828,vesc,0.00019520762730820652,0.00019520762730820652,nan,nan,0.01,1,0,1,0,0,1786615453.7741828,nan,-0.00016086117162459086,0.00077892676517233987,0.00019520762730820652,-0.067004535242381813,0.092899067911066169,9.5914010836556827
1786615453.7948532,1786615453.7938333,vesc,0.00017698743776100315,0.00017698743776100315,nan,nan,0.01,1,0,1,0,0,1786615453.7938333,nan,-0.0012260522666965789,-0.001351561535296319,0.00017698743776100315,-0.091177802866019952,0.040158094097307639,9.6101379022939
1786615453.8145401,1786615453.8136094,vesc,0.0012575316630191562,0.0012575316630191562,nan,nan,0.01,1,0,1,0,0,1786615453.8136094,nan,-0.00017335514220734541,-0.0002891974481392882,0.0012575316630191562,-0.052972477882126334,0.035341121091665428,9.6201530136918336
1786615453.8339806,1786615453.8335347,vesc,0.00018271388429048652,0.00018271388429048652,nan,nan,0.01,1,0,1,0,0,1786615453.8335347,nan,-0.0012260522666965789,0.00077896005468596581,0.00018271388429048652,-0.071681887695800306,0.040234729170730787,9.5816245386665742
1786615453.8554685,1786615453.854681,vesc,0.00019234440404346486,0.00019234440404346486,nan,nan,0.01,1,0,1,0,0,1786615453.854681,nan,-0.00016086117162459086,-0.00028633454996745305,0.00019234440404346486,-0.034319256158766187,0.025644609870223434,9.6634598335526789
1786615453.8762383,1786615453.8735735,vesc,0.002313088564788322,0.002313088564788322,nan,nan,0.01,1,0,1,0,0,1786615453.8735735,nan,-0.0012510396877134374,0.00077323425834229539,0.002313088564788322,-0.066948356288342836,0.045011721837639129,9.586482405638435
1786615453.8953891,1786615453.8944216,vesc,0.0023255820152224267,0.0023255820152224267,nan,nan,0.01,1,0,1,0,0,1786615453.8944216,nan,-0.00018584859264144957,0.00077320096882866945,0.0023255820152224267,-0.043786318973681126,0.020880627258698325,9.6537546245975818
1786615453.9155509,1786615453.9146588,vesc,0.0012450379525107266,0.0012450379525107266,nan,nan,0.01,1,0,1,0,0,1786615453.9146588,nan,-0.0012385462372793334,-0.00028916311832836143,0.0012450379525107266,-0.057312756611310967,0.054604335341512211,9.5818315301095254
1786615453.9346869,1786615453.93414,vesc,0.00019520762730820652,0.00019520762730820652,nan,nan,0.01,1,0,1,0,0,1786615453.93414,nan,-0.00016086117162459086,0.00077892676517233987,0.00019520762730820652,-0.048351313519021666,0.054462430720576549,9.6346295508234334
1786615453.9551408,1786615453.9540675,vesc,-0.00088819985372397866,-0.00088819985372397866,nan,nan,0.01,1,0,1,0,0,1786615453.9540675,nan,-0.0012135582961138242,-0.001348698637124484,-0.00088819985372397866,-0.10431097868910211,0.0069116284674421991,9.5045056081274879
1786615453.9745665,1786615453.9737639,vesc,0.0012450379525107266,0.0012450379525107266,nan,nan,0.01,1,0,1,0,0,1786615453.9737639,nan,-0.0012385462372793334,-0.00028916311832836143,0.0012450379525107266,-0.010426883305322932,0.035211020537833093,9.6685562669333649
1786615453.9939981,1786615453.9935262,vesc,0.00016163047147854149,0.00016163047147854149,nan,nan,0.01,1,0,1,0,0,1786615453.9935262,nan,-0.0022912428416199163,-0.0024167885206251853,0.00016163047147854149,-0.075348009840242369,0.026122327409463963,9.4857348756370357
1786615454.0139971,1786615454.013483,vesc,0.00022019511334364655,0.00022019511334364655,nan,nan,0.01,1,0,1,0,0,1786615454.013483,nan,0.0019695210185193849,0.00077885914584778699,0.00022019511334364655,-0.033813645572415396,0.044920578359757712,9.6204032745324639
1786615454.0338941,1786615454.0335417,vesc,-0.00090069356423240813,-0.00090069356423240813,nan,nan,0.01,1,0,1,0,0,1786615454.0335417,nan,-0.0022787488710371622,-0.001348664307313557,-0.00090069356423240813,-0.071681887695800306,0.016284605923974738,9.5815590498484653
1786615454.0491893,1786615454.0489261,vesc,0.00019234440404346486,0.00019234440404346486,nan,nan,0.01,1,0,1,0,0,1786615454.0489261,nan,-0.00016086117162459086,-0.00028633454996745305,0.00019234440404346486,-0.066892177334303859,0.0019144150316030561,9.5815777609393535
1786615454.0741138,1786615454.0733683,vesc,0.0012411338467779411,0.0012411338467779411,nan,nan,0.01,1,0,1,0,0,1786615454.0733683,nan,-0.0023037378524999718,0.0029066520360100418,0.0012411338467779411,-0.0060304301902367463,0.035120754142337063,9.7021403361914054
1786615454.0942972,1786615454.0939658,vesc,0.00017698743776100315,0.00017698743776100315,nan,nan,0.01,1,0,1,0,0,1786615454.0939658,nan,-0.0012260522666965789,-0.001351561535296319,0.00017698743776100315,-0.090447467327238407,0.021165350128054428,9.5478194446474163
1786615454.1139095,1786615454.11338,vesc,0.00017022014127276652,0.00017022014127276652,nan,nan,0.01,1,0,1,0,0,1786615454.11338,nan,-0.0022912438819172173,0.00077899334419959175,0.00017022014127276652,-0.057930725105739711,-0.0078075681241145389,9.6343500539032902
1786615454.1339457,1786615454.1332967,vesc,0.00021342781685540992,0.00021342781685540992,nan,nan,0.01,1,0,1,0,0,1786615454.1332967,nan,0.00090432992344739716,0.002909414025343698,0.00021342781685540992,-0.072187498282151097,0.054488962462734492,9.6247699753685083
1786615454.1542792,1786615454.1539478,vesc,0.0012825190840360147,0.0012825190840360147,nan,nan,0.01,1,0,1,0,0,1786615454.1539478,nan,0.0019570270479366309,-0.00028926402716654019,0.0012825190840360147,-0.085264513423743971,0.049995450131802954,9.5144259946277998
1786615454.1758046,1786615454.1734228,vesc,0.00018948118077872315,0.00018948118077872315,nan,nan,0.01,1,0,1,0,0,1786615454.1734228,nan,-0.00016086117162459086,-0.001351594824809945,0.00018948118077872315,-0.02445894066557841,0.011338628717481924,9.6395844815792771
1786615454.1963162,1786615454.1956615,vesc,-0.00086997969668606593,-0.00086997969668606593,nan,nan,0.01,1,0,1,0,0,1786615454.1956615,nan,-0.00014836720104183631,0.00078178966334417502,-0.00086997969668606593,-0.056750967070921199,0.064313125716349617,9.5339603735151286
1786615454.2138405,1786615454.213352,vesc,-0.00086997969668606593,-0.00086997969668606593,nan,nan,0.01,1,0,1,0,0,1786615454.213352,nan,-0.00014836720104183631,0.00078178966334417502,-0.00086997969668606593,-0.052242151479619636,0.030718458379485725,9.5578743171134875
1786615454.2349739,1786615454.2333703,vesc,0.0012825190840360147,0.0012825190840360147,nan,nan,0.01,1,0,1,0,0,1786615454.2333703,nan,0.0019570270479366309,-0.00028926402716654019,0.0012825190840360147,-0.052972477882126334,0.054501205071030512,9.6202044691917763
1786615454.2536922,1786615454.253314,vesc,-0.00090069356423240813,-0.00090069356423240813,nan,nan,0.01,1,0,1,0,0,1786615454.253314,nan,-0.0022787488710371622,-0.001348664307313557,-0.00090069356423240813,-0.066330387793914092,0.045153334097779663,9.5337966514698564
1786615454.2736065,1786615454.2732573,vesc,0.00018948118077872315,0.00018948118077872315,nan,nan,0.01,1,0,1,0,0,1786615454.2732573,nan,-0.00016086117162459086,-0.001351594824809945,0.00018948118077872315,-0.0057495354200418625,0.035185146607464191,9.6781913092976311
1786615454.2921312,1786615454.2918322,vesc,0.00017308336453750821,0.00017308336453750821,nan,nan,0.01,1,0,1,0,0,1786615454.2918322,nan,-0.0022912438819172173,0.0018442536190420836,0.00017308336453750821,-0.10425480887133798,0.050034699568549001,9.499831343734968
1786615454.3133795,1786615454.3130956,vesc,-0.00090069356423240813,-0.00090069356423240813,nan,nan,0.01,1,0,1,0,0,1786615454.3130956,nan,-0.0022787488710371622,-0.001348664307313557,-0.00090069356423240813,-0.043561594021250372,0.035302200560813901,9.634635398039336
1786615454.3334618,1786615454.3331528,vesc,0.00019234440404346486,0.00019234440404346486,nan,nan,0.01,1,0,1,0,0,1786615454.3331528,nan,-0.00016086117162459086,-0.00028633454996745305,0.00019234440404346486,-0.095855155319438445,0.02102392059341085,9.6004502349865106
1786615454.3543043,1786615454.3537068,vesc,0.00018661795751398149,0.00018661795751398149,nan,nan,0.01,1,0,1,0,0,1786615454.3537068,nan,-0.00016086117162459086,-0.0024168550996524372,0.00018661795751398149,-0.043617782111564196,0.068819465377167433,9.6395143149884461
1786615454.3733654,1786615454.3730972,vesc,-0.00084499214563204465,-0.00084499214563204465,nan,nan,0.01,1,0,1,0,0,1786615454.3730972,nan,0.0019820149891021394,0.00078172204401962214,-0.00084499214563204465,-0.11366568359593909,0.016543491408061328,9.4852600817057464
1786615454.3933711,1786615454.3930528,vesc,0.00017985066102574486,0.00017985066102574486,nan,nan,0.01,1,0,1,0,0,1786615454.3930528,nan,-0.0012260522666965789,-0.00028630022015652622,0.00017985066102574486,-0.024964551251929201,0.049542912166042896,9.6827954070993201
1786615454.4133301,1786615454.413048,vesc,0.0012642990570352647,0.0012642990570352647,nan,nan,0.01,1,0,1,0,0,1786615454.413048,nan,0.00089183595286464255,-0.0024197512873378982,0.0012642990570352647,-0.066779819426225906,0.040260347285403952,9.572100593404457
1786615454.4339664,1786615454.4333935,vesc,0.00016163047147854149,0.00016163047147854149,nan,nan,0.01,1,0,1,0,0,1786615454.4333935,nan,-0.0022912428416199163,-0.0024167885206251853,0.00016163047147854149,-0.057874546151700734,0.049685584234065772,9.6297155505789078
1786615454.4532866,1786615454.4529681,vesc,0.0023034580125260531,0.0023034580125260531,nan,nan,0.01,1,0,1,0,0,1786615454.4529681,nan,-0.0023162318230827263,0.0018385278226984135,0.0023034580125260531,-0.038659534887950819,0.049697863387461183,9.6251500444021758
1786615454.4734204,1786615454.4730856,vesc,-0.0019255363383809071,-0.0019255363383809071,nan,nan,0.01,1,0,1,0,0,1786615454.4730856,nan,0.00092931734446425576,-0.00028064204313740869,-0.0019255363383809071,-0.11884865577198322,0.040403604075017086,9.5187962037933858
1786615454.4933207,1786615454.4930201,vesc,0.0012421747942645664,0.0012421747942645664,nan,nan,0.01,1,0,1,0,0,1786615454.4930201,nan,-0.0012385462372793334,-0.0013544244334681541,0.0012421747942645664,-0.020511914614666615,0.025515422943875876,9.7115251177150412
1786615454.5309973,1786615454.52949,vesc,-0.001950524019472091,-0.001950524019472091,nan,nan,0.01,1,0,1,0,0,1786615454.52949,nan,-0.0012010648456797202,-0.00028057442381285586,-0.001950524019472091,-0.08092422555828449,0.035522275149347138,9.5527603420850937
1786615454.5353856,1786615454.5348821,vesc,0.00017985066102574486,0.00017985066102574486,nan,nan,0.01,1,0,1,0,0,1786615454.5348821,nan,-0.0012260522666965789,-0.00028630022015652622,0.00017985066102574486,-0.071625708741761329,0.045037632313107423,9.5768473632741689
1786615454.553967,1786615454.55357,vesc,-0.00086711640840274296,-0.00086711640840274296,nan,nan,0.01,1,0,1,0,0,1786615454.55357,nan,-0.00014836720104183631,0.0018470499381866669,-0.00086711640840274296,-0.034150719296649257,-0.0078469271961587594,9.6490008380687868
1786615454.5883329,1786615454.5773041,vesc,-0.0009035568525157311,-0.0009035568525157311,nan,nan,0.01,1,0,1,0,0,1786615454.5773041,nan,-0.0022787488710371622,-0.0024139256224533496,-0.0009035568525157311,-0.070783024431176678,0.093130946566702733,9.5051300907858831
1786615454.5930831,1786615454.5928199,vesc,0.00016449369474328318,0.00016449369474328318,nan,nan,0.01,1,0,1,0,0,1786615454.5928199,nan,-0.0022912428416199163,-0.0013515272054853921,0.00016449369474328318,-0.071850424557917236,-0.017284150937420861,9.5958391205257385
1786615454.6133776,1786615454.6129813,vesc,0.00017985066102574486,0.00017985066102574486,nan,nan,0.01,1,0,1,0,0,1786615454.6129813,nan,-0.0012260522666965789,-0.00028630022015652622,0.00017985066102574486,-0.057818367197661757,0.04011844266446829,9.6248997835615455
1786615454.6318126,1786615454.6313913,vesc,0.0012603948212653164,0.0012603948212653164,nan,nan,0.01,1,0,1,0,0,1786615454.6313913,nan,-0.00017335514220734541,0.00077606386700050461,0.0012603948212653164,-0.085994830689975821,0.04024803158690915,9.576666099581189
1786615454.655829,1786615454.6530259,vesc,0.00021160544354942147,0.00021160544354942147,nan,nan,0.01,1,0,1,0,0,1786615454.6530259,nan,0.0019695210185193849,-0.0024169227189769897,0.00021160544354942147,-0.05353427655879095,0.025632330716828022,9.6680241702862304
1786615454.6733181,1786615454.6729851,vesc,0.00021056459359066821,0.00021056459359066821,nan,nan,0.01,1,0,1,0,0,1786615454.6729851,nan,0.00090432992344739716,0.001844153750501206,0.00021056459359066821,-0.071176277109449515,0.083460784361921725,9.5386322990212875
1786615454.6932359,1786615454.6928513,vesc,0.00022305833660838821,0.00022305833660838821,nan,nan,0.01,1,0,1,0,0,1786615454.6928513,nan,0.0019695210185193849,0.0018441194206902792,0.00022305833660838821,-0.039558398152574448,0.0015916487137808133,9.701656186714672
1786615454.7134399,1786615454.7129054,vesc,0.0012450379525107266,0.0012450379525107266,nan,nan,0.01,1,0,1,0,0,1786615454.7129054,nan,-0.0012385462372793334,-0.00028916311832836143,0.0012450379525107266,-0.06249571965108025,0.059304400574202276,9.615316196697222
1786615454.7337532,1786615454.7329612,vesc,0.00020197492379644315,0.00020197492379644315,nan,nan,0.01,1,0,1,0,0,1786615454.7329612,nan,0.00090432992344739716,-0.0013516281143235711,0.00020197492379644315,-0.052803941020009404,0.05453983324108691,9.6058355208327839
1786615454.7535884,1786615454.753078,vesc,-0.00088533669547781837,-0.00088533669547781837,nan,nan,0.01,1,0,1,0,0,1786615454.753078,nan,-0.0012135582961138242,-0.00028343732198469102,-0.00088533669547781837,-0.10008307614054512,0.025942817881254854,9.5525100812444634
1786615454.7733278,1786615454.7729433,vesc,0.00018948118077872315,0.00018948118077872315,nan,nan,0.01,1,0,1,0,0,1786615454.7729433,nan,-0.00016086117162459086,-0.001351594824809945,0.00018948118077872315,-0.000959825058545416,0.044765042416749168,9.6782731703202671
1786615454.7938962,1786615454.7934453,vesc,0.00019911170053170147,0.00019911170053170147,nan,nan,0.01,1,0,1,0,0,1786615454.7934453,nan,0.00090432992344739716,-0.0024168883891660629,0.00019911170053170147,-0.094900103964500993,0.040402873173029263,9.5190768701567094
1786615454.814198,1786615454.8129389,vesc,0.0012518052164896727,0.0012518052164896727,nan,nan,0.01,1,0,1,0,0,1786615454.8129389,nan,-0.00017335514220734541,-0.002419717997824272,0.0012518052164896727,-0.02445894066557841,0.0161286314397735,9.6395973454542627
1786615454.8340366,1786615454.8330007,vesc,0.00020197492379644315,0.00020197492379644315,nan,nan,0.01,1,0,1,0,0,1786615454.8330007,nan,0.00090432992344739716,-0.0013516281143235711,0.00020197492379644315,-0.086725166228757367,0.040080691576797278,9.6389319322845495
1786615454.8530684,1786615454.8527324,vesc,0.00017985066102574486,0.00017985066102574486,nan,nan,0.01,1,0,1,0,0,1786615454.8527324,nan,-0.0012260522666965789,-0.00028630022015652622,0.00017985066102574486,-0.062046288018768436,0.0067171354484827361,9.576856718819613
1786615454.8729219,1786615454.8726926,vesc,-0.0008824734071944954,-0.0008824734071944954,nan,nan,0.01,1,0,1,0,0,1786615454.8726926,nan,-0.0012135582961138242,0.00078182295285780096,-0.0008824734071944954,-0.024571298573656364,0.059213074370823904,9.6492931988639157
1786615454.8935502,1786615454.8930645,vesc,-0.00087570614321554941,-0.00087570614321554941,nan,nan,0.01,1,0,1,0,0,1786615454.8930645,nan,-0.00014836720104183631,-0.0013487319266381099,-0.00087570614321554941,-0.10447952468749389,0.035613126266433426,9.5189517397363943
1786615454.9135044,1786615454.9127266,vesc,0.00019807085057294823,0.00019807085057294823,nan,nan,0.01,1,0,1,0,0,1786615454.9127266,nan,-0.00016086117162459086,0.0018441870400148319,0.00019807085057294823,-0.029529545797269741,0.030434502957216836,9.6635288307003293
1786615454.9332218,1786615454.9327924,vesc,-0.00085071859216152813,-0.00085071859216152813,nan,nan,0.01,1,0,1,0,0,1786615454.9327924,nan,0.0019820149891021394,-0.0013487985056653618,-0.00085071859216152813,-0.058155440921895618,0.049621228314038035,9.6536634080295016
1786615454.9536252,1786615454.9526486,vesc,-0.0019380303089636616,-0.0019380303089636616,nan,nan,0.01,1,0,1,0,0,1786615454.9526486,nan,-0.00013587375060773214,-0.00028060875362378264,-0.0019380303089636616,-0.071569529787722352,0.049840535455484059,9.5720701878817636
1786615454.973568,1786615454.9733303,vesc,-0.0019437566254559822,-0.0019437566254559822,nan,nan,0.01,1,0,1,0,0,1786615454.9733303,nan,-0.00013587375060773214,-0.0024111293033087667,-0.0019437566254559822,-0.029417187889191787,-0.0030699345292504177,9.6538587050406477
1786615454.9929824,1786615454.9926615,vesc,-0.00087570614321554941,-0.00087570614321554941,nan,nan,0.01,1,0,1,0,0,1786615454.9926615,nan,-0.00014836720104183631,-0.0013487319266381099,-0.00087570614321554941,-0.057706009289583804,0.078464338373169795,9.6154237854698295
1786615455.0131681,1786615455.0126183,vesc,-0.00086997969668606593,-0.00086997969668606593,nan,nan,0.01,1,0,1,0,0,1786615455.0126183,nan,-0.00014836720104183631,0.00078178966334417502,-0.00086997969668606593,-0.062102466972807413,0.02586435555286215,9.5816982135869466
1786615455.0333118,1786615455.0327268,vesc,0.0012450379525107266,0.0012450379525107266,nan,nan,0.01,1,0,1,0,0,1786615455.0327268,nan,-0.0012385462372793334,-0.00028916311832836143,0.0012450379525107266,-0.057368935565349943,0.049801468744234967,9.5866075360587502
1786615455.0529394,1786615455.0526316,vesc,-0.0019880051509973788,-0.0019880051509973788,nan,nan,0.01,1,0,1,0,0,1786615455.0526316,nan,-0.0043966370905983831,-0.00028047455527197788,-0.0019880051509973788,-0.076303061195179822,0.054643584778258258,9.5672368792166935
1786615455.0733569,1786615455.0729966,vesc,-0.00085748598617763668,-0.00085748598617763668,nan,nan,0.01,1,0,1,0,0,1786615455.0729966,nan,0.00091682389403015165,0.00078175533353324808,-0.00085748598617763668,-0.015328951574897332,0.035185438968259319,9.6780790427523016
1786615455.0935478,1786615455.0932338,vesc,0.0012700253735275855,0.0012700253735275855,nan,nan,0.01,1,0,1,0,0,1786615455.0932338,nan,0.00089183595286464255,-0.0002892307376529142,0.0012700253735275855,-0.1326559973160828,0.050112832991047185,9.4707566473809948
1786615455.1130612,1786615455.1127191,vesc,0.00019520762730820652,0.00019520762730820652,nan,nan,0.01,1,0,1,0,0,1786615455.1127191,nan,-0.00016086117162459086,0.00077892676517233987,0.00019520762730820652,-0.048238946474668865,-0.012572098912130514,9.6248705474820326
1786615455.1329782,1786615455.1325655,vesc,0.00021733189007890484,0.00021733189007890484,nan,nan,0.01,1,0,1,0,0,1786615455.1325655,nan,0.0019695210185193849,-0.00028640112899470504,0.00021733189007890484,-0.067341608966615674,0.030551556910566546,9.6199717499988537
1786615455.1533036,1786615455.1526449,vesc,-0.0019255363383809071,-0.0019255363383809071,nan,nan,0.01,1,0,1,0,0,1786615455.1526449,nan,0.00092931734446425576,-0.00028064204313740869,-0.0019255363383809071,-0.052860119974048381,0.064107011355783783,9.6106512878501462
1786615455.1728728,1786615455.1726143,vesc,-0.0019562503359644118,-0.0019562503359644118,nan,nan,0.01,1,0,1,0,0,1786615455.1726143,nan,-0.0012010648456797202,-0.0024110960137951405,-0.0019562503359644118,-0.11411511522825091,0.026020512762560344,9.5236037847084845
1786615455.1929054,1786615455.1924644,vesc,0.0012518052164896727,0.0012518052164896727,nan,nan,0.01,1,0,1,0,0,1786615455.1924644,nan,-0.00017335514220734541,-0.002419717997824272,0.0012518052164896727,-0.025245446022124085,0.039898514256332618,9.7067175367999425
1786615455.2140985,1786615455.2134509,vesc,-0.0019466197837021428,-0.0019466197837021428,nan,nan,0.01,1,0,1,0,0,1786615455.2134509,nan,-0.00013587375060773214,-0.0034763906184485591,-0.0019466197837021428,-0.094843934146736864,0.035625697780623966,9.5142739670143328
1786615455.2328994,1786615455.2325556,vesc,-0.00087856930146170981,-0.00087856930146170981,nan,nan,0.01,1,0,1,0,0,1786615455.2325556,nan,-0.00014836720104183631,-0.002413992201480602,-0.00087856930146170981,-0.071850424557917236,0.030616059010991847,9.5959677592755952
1786615455.253026,1786615455.252573,vesc,-0.00091032411649467708,-0.00091032411649467708,nan,nan,0.01,1,0,1,0,0,1786615455.252573,nan,-0.0033439404862578002,-0.00028337074295743903,-0.00091032411649467708,-0.053141014744243265,0.044882534911291572,9.6345476898007973
1786615455.2727201,1786615455.2724299,vesc,-0.0019533871777182511,-0.0019533871777182511,nan,nan,0.01,1,0,1,0,0,1786615455.2724299,nan,-0.0012010648456797202,-0.0013458357389526487,-0.0019533871777182511,-0.066779819426225906,-0.002849859940717181,9.5719848185295859
1786615455.2927279,1786615455.2924054,vesc,0.0012507643990402101,0.0012507643990402101,nan,nan,0.01,1,0,1,0,0,1786615455.2924054,nan,-0.0012385462372793334,0.0018413574313566226,0.0012507643990402101,-0.020062482982354801,0.059148572270398603,9.6732971895871742
1786615455.3128183,1786615455.3124738,vesc,-0.0019283997567013926,-0.0019283997567013926,nan,nan,0.01,1,0,1,0,0,1786615455.3124738,nan,0.00092931734446425576,-0.0013459023179799006,-0.0019283997567013926,-0.080530972880011653,0.035612395364445604,9.519232406099718
1786615455.3338296,1786615455.3332374,vesc,0.00019234440404346486,0.00019234440404346486,nan,nan,0.01,1,0,1,0,0,1786615455.3332374,nan,-0.00016086117162459086,-0.00028633454996745305,0.00019234440404346486,-0.043224520297016511,0.025799414911244156,9.6058706041281994
1786615455.3528171,1786615455.352361,vesc,0.001217187243210545,0.001217187243210545,nan,nan,0.01,1,0,1,0,0,1786615455.352361,nan,-0.0033689284274233092,-0.0013543568141436014,0.001217187243210545,-0.048688387243255526,0.03522512694619806,9.663317161484656
1786615455.3730338,1786615455.3724236,vesc,0.00022696240983188315,0.00022696240983188315,nan,nan,0.01,1,0,1,0,0,1786615455.3724236,nan,0.0030347123736656984,-0.0013516957336481238,0.00022696240983188315,-0.090166581693318371,0.054759871284520756,9.5239616343217222
1786615455.3928497,1786615455.3925071,vesc,0.00017698743776100315,0.00017698743776100315,nan,nan,0.01,1,0,1,0,0,1786615455.3925071,nan,-0.0012260522666965789,-0.001351561535296319,0.00017698743776100315,-0.033869815390179525,-0.0029925320087400564,9.6250646750499982
1786615455.4127374,1786615455.4124067,vesc,-0.00090069356423240813,-0.00090069356423240813,nan,nan,0.01,1,0,1,0,0,1786615455.4124067,nan,-0.0022787488710371622,-0.001348664307313557,-0.00090069356423240813,-0.090391297509474278,0.035548295260113605,9.5430691664481628
1786615455.4327085,1786615455.4324052,vesc,-0.00086997969668606593,-0.00086997969668606593,nan,nan,0.01,1,0,1,0,0,1786615455.4324052,nan,-0.00014836720104183631,0.00078178966334417502,-0.00086997969668606593,-0.038659534887950819,0.044907860665169608,9.6251371805271901
1786615455.4527557,1786615455.4523966,vesc,0.0012728886618109084,0.0012728886618109084,nan,nan,0.01,1,0,1,0,0,1786615455.4523966,nan,0.00089183595286464255,0.00077602953718957789,0.0012728886618109084,-0.04389867688175908,0.035224980765800495,9.6633732947573208
1786615455.473249,1786615455.4729211,vesc,0.00018948118077872315,0.00018948118077872315,nan,nan,0.01,1,0,1,0,0,1786615455.4729211,nan,-0.00016086117162459086,-0.001351594824809945,0.00018948118077872315,-0.10893216132475647,0.035690492241844396,9.4901577097457448
1786615455.4928212,1786615455.4924359,vesc,-0.00085462269789431371,-0.00085462269789431371,nan,nan,0.01,1,0,1,0,0,1786615455.4924359,nan,0.00091682389403015165,0.001847016648673041,-0.00085462269789431371,-0.029810440567464624,0.0016299845230420829,9.6873995049010091
1786615455.5149472,1786615455.5136931,vesc,-0.00085462269789431371,-0.00085462269789431371,nan,nan,0.01,1,0,1,0,0,1786615455.5136931,nan,0.00091682389403015165,0.001847016648673041,-0.00085462269789431371,-0.080643330788089607,0.04037663379166645,9.5288253485094856
1786615455.5284207,1786615455.5279009,vesc,-0.00086711640840274296,-0.00086711640840274296,nan,nan,0.01,1,0,1,0,0,1786615455.5279009,nan,-0.00014836720104183631,0.0018470499381866669,-0.00086711640840274296,-0.048014230658512957,0.025799561091641721,9.6058144708555346
1786615455.5485878,1786615455.5483222,vesc,-0.0019351668906431761,-0.0019351668906431761,nan,nan,0.01,1,0,1,0,0,1786615455.5483222,nan,-0.00013587375060773214,0.00078465256151601006,-0.0019351668906431761,-0.072018961420034167,0.020997425396352298,9.6103109798846162
1786615455.5727098,1786615455.5723712,vesc,-0.0008824734071944954,-0.0008824734071944954,nan,nan,0.01,1,0,1,0,0,1786615455.5723712,nan,-0.0012135582961138242,0.00078182295285780096,-0.0008824734071944954,-0.024908372297890224,0.039975770596445415,9.6779796400819578
1786615455.5926194,1786615455.5923045,vesc,0.0012614357687519416,0.0012614357687519416,nan,nan,0.01,1,0,1,0,0,1786615455.5923045,nan,0.00089183595286464255,-0.003485012602477691,0.0012614357687519416,-0.094619218330580956,0.011727066578909984,9.4950518294562016
1786615455.6098702,1786615455.609524,vesc,0.0012546685047729958,0.0012546685047729958,nan,nan,0.01,1,0,1,0,0,1786615455.609524,nan,-0.00017335514220734541,-0.0013544577229817802,0.0012546685047729958,-0.048688387243255526,0.049595171658172177,9.663355753109613
1786615455.6282527,1786615455.6279004,vesc,0.00019234440404346486,0.00019234440404346486,nan,nan,0.01,1,0,1,0,0,1786615455.6279004,nan,-0.00016086117162459086,-0.00028633454996745305,0.00019234440404346486,-0.038490988889559041,0.035366446845543464,9.6107425044182264
1786615455.6529243,1786615455.6523721,vesc,0.0012757519500942313,0.0012757519500942313,nan,nan,0.01,1,0,1,0,0,1786615455.6523721,nan,0.00089183595286464255,0.0018412908523293707,0.0012757519500942313,-0.063113688145508995,0.0064725390982580677,9.6678604482409582
1786615455.6727803,1786615455.6724153,vesc,0.00017985066102574486,0.00017985066102574486,nan,nan,0.01,1,0,1,0,0,1786615455.6724153,nan,-0.0012260522666965789,-0.00028630022015652622,0.00017985066102574486,-0.085433041149586053,0.064326903218820064,9.5288335346117492
1786615455.6926055,1786615455.6921854,vesc,0.0012518052164896727,0.0012518052164896727,nan,nan,0.01,1,0,1,0,0,1786615455.6921854,nan,-0.00017335514220734541,-0.002419717997824272,0.0012518052164896727,-0.076359231012943951,0.0019404716874689143,9.5718854158592421
1786615455.7126141,1786615455.7121577,vesc,0.00018661795751398149,0.00018661795751398149,nan,nan,0.01,1,0,1,0,0,1786615455.7121577,nan,-0.00016086117162459086,-0.0024168550996524372,0.00018661795751398149,-0.034150719296649257,0.044843322019644916,9.6491423406936292
1786615455.7326255,1786615455.7322905,vesc,-0.0019533871777182511,-0.0019533871777182511,nan,nan,0.01,1,0,1,0,0,1786615455.7322905,nan,-0.0012010648456797202,-0.0013458357389526487,-0.0019533871777182511,-0.048126588566590911,0.044933880775936075,9.6154460048902592
1786615455.7524517,1786615455.7521522,vesc,-0.00088533669547781837,-0.00088533669547781837,nan,nan,0.01,1,0,1,0,0,1786615455.7521522,nan,-0.0012135582961138242,-0.00028343732198469102,-0.00088533669547781837,-0.057200398703233013,0.049840096914291365,9.5722385876997578
1786615455.7728608,1786615455.7722781,vesc,0.00018948118077872315,0.00018948118077872315,nan,nan,0.01,1,0,1,0,0,1786615455.7722781,nan,-0.00016086117162459086,-0.001351594824809945,0.00018948118077872315,-0.034319256158766187,-0.012675558088506733,9.6633569225527935
1786615455.7925148,1786615455.7921634,vesc,0.0012632581095486394,0.0012632581095486394,nan,nan,0.01,1,0,1,0,0,1786615455.7921634,nan,-0.00017335514220734541,0.0018413241418429966,0.0012632581095486394,-0.094675388148345085,0.050034407207753873,9.4999436102802974
1786615455.8125896,1786615455.8122277,vesc,-0.00086997969668606593,-0.00086997969668606593,nan,nan,0.01,1,0,1,0,0,1786615455.8122277,nan,-0.00014836720104183631,0.00078178966334417502,-0.00086997969668606593,-0.048351304382746818,-0.0030178212175187014,9.6344751843236054
1786615455.8324423,1786615455.8321114,vesc,0.00019520762730820652,0.00019520762730820652,nan,nan,0.01,1,0,1,0,0,1786615455.8321114,nan,-0.00016086117162459086,0.00077892676517233987,0.00019520762730820652,-0.062551898605119227,0.049711494709534065,9.6200793387714612
1786615455.8526719,1786615455.85234,vesc,-0.00084785543391536762,-0.00084785543391536762,nan,nan,0.01,1,0,1,0,0,1786615455.85234,nan,0.0019820149891021394,-0.00028353823082286983,-0.00084785543391536762,-0.090728371233708138,0.035471075465100199,9.5718070631661476
1786615455.8725665,1786615455.8722355,vesc,-0.0019669217056761433,-0.0019669217056761433,nan,nan,0.01,1,0,1,0,0,1786615455.8722355,nan,-0.0033314475559723463,0.0029152740200391733,-0.0019669217056761433,-0.048744566197294503,0.068742391762551591,9.6681960784337662
1786615455.8925729,1786615455.8921115,vesc,0.00018271388429048652,0.00018271388429048652,nan,nan,0.01,1,0,1,0,0,1786615455.8921115,nan,-0.0012260522666965789,0.00077896005468596581,0.00018271388429048652,-0.11834303604935759,0.054889533297160398,9.4757279503413656
1786615455.9123883,1786615455.9120724,vesc,-0.00088533669547781837,-0.00088533669547781837,nan,nan,0.01,1,0,1,0,0,1786615455.9120724,nan,-0.0012135582961138242,-0.00028343732198469102,-0.00088533669547781837,-0.044011034789837034,0.011249093223973716,9.6728878844739938
1786615455.9323969,1786615455.9320645,vesc,-0.00089106301197013917,-0.00089106301197013917,nan,nan,0.01,1,0,1,0,0,1786615455.9320645,nan,-0.0012135582961138242,-0.0024139589119669758,-0.00089106301197013917,-0.08176691900514399,0.025749128854481995,9.6245805255732648
1786615455.9523339,1786615455.9520128,vesc,-0.00088533669547781837,-0.00088533669547781837,nan,nan,0.01,1,0,1,0,0,1786615455.9520128,nan,-0.0012135582961138242,-0.00028343732198469102,-0.00088533669547781837,-0.057706009289583804,0.064094257116096287,9.6153851938448724
1786615455.972528,1786615455.9721997,vesc,0.00017985066102574486,0.00017985066102574486,nan,nan,0.01,1,0,1,0,0,1786615455.9721997,nan,-0.0012260522666965789,-0.00028630022015652622,0.00017985066102574486,-0.06249571965108025,0.0018241486361070258,9.6151606607542135
1786615455.9926581,1786615455.9922311,vesc,-0.00086997969668606593,-0.00086997969668606593,nan,nan,0.01,1,0,1,0,0,1786615455.9922311,nan,-0.00014836720104183631,0.00078178966334417502,-0.00086997969668606593,-0.043842497927720103,0.035237844640786165,9.6585832554899298
1786615456.0123098,1786615456.0120144,vesc,-0.00087284285493222644,-0.00087284285493222644,nan,nan,0.01,1,0,1,0,0,1786615456.0120144,nan,-0.00014836720104183631,-0.00028347165179561784,-0.00087284285493222644,-0.094843934146736864,0.045205739770306508,9.5143008642074847
1786615456.0327206,1786615456.032011,vesc,0.00017698743776100315,0.00017698743776100315,nan,nan,0.01,1,0,1,0,0,1786615456.032011,nan,-0.0012260522666965789,-0.001351561535296319,0.00017698743776100315,-0.076359231012943951,0.011520513677151456,9.5719111436092135
1786615456.0534136,1786615456.0524664,vesc,0.002353432854559771,0.002353432854559771,nan,nan,0.01,1,0,1,0,0,1786615456.0524664,nan,0.0019445335975025262,0.0018383936243466085,0.002353432854559771,-0.071850424557917236,0.049776142990356931,9.5960192147755379
1786615456.072299,1786615456.0719426,vesc,0.0023227191170505914,0.0023227191170505914,nan,nan,0.01,1,0,1,0,0,1786615456.0719426,nan,-0.00018584859264144957,-0.00029206034631112335,0.0023227191170505914,-0.062664256513197181,0.016155565178024744,9.6295693701813434
1786615456.0927498,1786615456.0918849,vesc,0.0012296809537189744,0.0012296809537189744,nan,nan,0.01,1,0,1,0,0,1786615456.0918849,nan,-0.0023037368122026708,-0.0013543901036572276,0.0012296809537189744,-0.071007740247332585,0.083499412531978123,9.5242633506622951
1786615456.1124697,1786615456.1117857,vesc,0.0012700253735275855,0.0012700253735275855,nan,nan,0.01,1,0,1,0,0,1786615456.1117857,nan,0.00089183595286464255,-0.0002892307376529142,0.0012700253735275855,-0.090784541051472267,0.011508051798259089,9.5765327830586102
1786615456.1324029,1786615456.1318722,vesc,0.0012603948212653164,0.0012603948212653164,nan,nan,0.01,1,0,1,0,0,1786615456.1318722,nan,-0.00017335514220734541,0.00077606386700050461,0.0012603948212653164,-0.058211629012209443,0.049608364439052366,9.6584534472968926
1786615456.152246,1786615456.1518672,vesc,0.00016449369474328318,0.00016449369474328318,nan,nan,0.01,1,0,1,0,0,1786615456.1518672,nan,-0.0022912428416199163,-0.0013515272054853921,0.00016449369474328318,-0.038940429658145703,0.025683384220677397,9.6490347519210218
1786615456.1722114,1786615456.1718452,vesc,-0.00087570614321554941,-0.00087570614321554941,nan,nan,0.01,1,0,1,0,0,1786615456.1718452,nan,-0.00014836720104183631,-0.0013487319266381099,-0.00087570614321554941,-0.10498514441011952,0.054657325735629314,9.5621100403133141
1786615456.1921396,1786615456.1918149,vesc,-0.0019226731801347467,-0.0019226731801347467,nan,nan,0.01,1,0,1,0,0,1786615456.1918149,nan,0.00092931734446425576,0.00078461823170508345,-0.0019226731801347467,-0.015553667391053239,0.02555390493353471,9.6972123026287136
1786615456.2120972,1786615456.2118292,vesc,0.0012268176654356515,0.0012268176654356515,nan,nan,0.01,1,0,1,0,0,1786615456.2118292,nan,-0.0023037368122026708,-0.0024196514187970202,0.0012268176654356515,-0.081092771556676269,0.073803814938020906,9.5672322014439715
1786615456.2321661,1786615456.2318385,vesc,0.00019520762730820652,0.00019520762730820652,nan,nan,0.01,1,0,1,0,0,1786615456.2318385,nan,-0.00016086117162459086,0.00077892676517233987,0.00019520762730820652,-0.04778951484235705,0.054591179105731413,9.5867326664790653
1786615456.2520268,1786615456.2517376,vesc,-0.00088533669547781837,-0.00088533669547781837,nan,nan,0.01,1,0,1,0,0,1786615456.2517376,nan,-0.0012135582961138242,-0.00028343732198469102,-0.00088533669547781837,-0.03392600348049335,0.054474856054369525,9.6300090808172172
1786615456.272207,1786615456.2717211,vesc,0.00021342781685540992,0.00021342781685540992,nan,nan,0.01,1,0,1,0,0,1786615456.2717211,nan,0.00090432992344739716,0.002909414025343698,0.00021342781685540992,-0.10476041032141392,0.035548733801306298,9.5429007666301686
1786615456.2921441,1786615456.291826,vesc,0.0012479011107568872,0.0012479011107568872,nan,nan,0.01,1,0,1,0,0,1786615456.291826,nan,-0.0012385462372793334,0.00077609715651413066,0.0012479011107568872,-0.015385130528936308,0.044752580537856801,9.6828948097696639
1786615456.312314,1786615456.3117192,vesc,0.0012268176654356515,0.0012268176654356515,nan,nan,0.01,1,0,1,0,0,1786615456.3117192,nan,-0.0023037368122026708,-0.0024196514187970202,0.0012268176654356515,-0.13761423540342133,0.030914303567122658,9.4850180069673797
1786615456.3323643,1786615456.3319883,vesc,0.00021342781685540992,0.00021342781685540992,nan,nan,0.01,1,0,1,0,0,1786615456.3319883,nan,0.00090432992344739716,0.002909414025343698,0.00021342781685540992,-0.048407483336785795,0.035289482866225796,9.6393681345908817
1786615456.3522666,1786615456.3519056,vesc,-0.00088819985372397866,-0.00088819985372397866,nan,nan,0.01,1,0,1,0,0,1786615456.3519056,nan,-0.0012135582961138242,-0.001348698637124484,-0.00088819985372397866,-0.048014230658512957,0.035379603081324262,9.605840198605506
1786615456.3674395,1786615456.3670034,vesc,0.0012450379525107266,0.0012450379525107266,nan,nan,0.01,1,0,1,0,0,1786615456.3670034,nan,-0.0012385462372793334,-0.00028916311832836143,0.0012450379525107266,-0.043224520297016511,0.068909585592265898,9.6059863790030704
1786615456.3923419,1786615456.3919008,vesc,0.00017698743776100315,0.00017698743776100315,nan,nan,0.01,1,0,1,0,0,1786615456.3919008,nan,-0.0012260522666965789,-0.001351561535296319,0.00017698743776100315,-0.053253372652321218,-0.0030434027870924751,9.6439991295857226
1786615456.4119639,1786615456.4116058,vesc,0.00022019511334364655,0.00022019511334364655,nan,nan,0.01,1,0,1,0,0,1786615456.4116058,nan,0.0019695210185193849,0.00077885914584778699,0.00022019511334364655,-0.044123392697914987,0.059123538877315696,9.6825966017586325
1786615456.4322226,1786615456.431812,vesc,-0.00087284285493222644,-0.00087284285493222644,nan,nan,0.01,1,0,1,0,0,1786615456.431812,nan,-0.00014836720104183631,-0.00028347165179561784,-0.00087284285493222644,-0.067285430012576697,0.035354423507843791,9.6151945746064484
1786615456.4523027,1786615456.4518728,vesc,0.0012296809537189744,0.0012296809537189744,nan,nan,0.01,1,0,1,0,0,1786615456.4518728,nan,-0.0023037368122026708,-0.0013543901036572276,0.0012296809537189744,-0.048688387243255526,0.040015129668489635,9.6633300253596417
1786615456.4722424,1786615456.4718461,vesc,0.0012546685047729958,0.0012546685047729958,nan,nan,0.01,1,0,1,0,0,1786615456.4718461,nan,-0.00017335514220734541,-0.0013544577229817802,0.0012546685047729958,-0.066892177334303859,0.049814624980015765,9.5817063996892102
1786615456.4925663,1786615456.4921825,vesc,0.0012950129245816069,0.0012950129245816069,nan,nan,0.01,1,0,1,0,0,1786615456.4921825,nan,0.0030222186631572692,-0.00028929731668016619,0.0012950129245816069,-0.03916514547430161,-0.012688312328194229,9.6680896591043393
1786615456.5120773,1786615456.5116372,vesc,0.00019234440404346486,0.00019234440404346486,nan,nan,0.01,1,0,1,0,0,1786615456.5116372,nan,-0.00016086117162459086,-0.00028633454996745305,0.00019234440404346486,-0.033757466618376419,0.059303486946717499,9.6156529963332105
1786615456.5323243,1786615456.5318165,vesc,-0.00089783040598624762,-0.00089783040598624762,nan,nan,0.01,1,0,1,0,0,1786615456.5318165,nan,-0.0022787488710371622,-0.00028340403247106507,-0.00089783040598624762,-0.062720435467236157,0.040092824549795125,9.6344225593804822
1786615456.5531025,1786615456.5526142,vesc,0.00017698743776100315,0.00017698743776100315,nan,nan,0.01,1,0,1,0,0,1786615456.5526142,nan,-0.0012260522666965789,-0.001351561535296319,0.00017698743776100315,-0.05235450938769759,0.035482733351805962,9.5674672595232551
1786615456.5720987,1786615456.5717242,vesc,-0.00087284285493222644,-0.00087284285493222644,nan,nan,0.01,1,0,1,0,0,1786615456.5717242,nan,-0.00014836720104183631,-0.00028347165179561784,-0.00087284285493222644,-0.034656329883000048,0.025567353530110637,9.6921977302706637
1786615456.5921013,1786615456.5916934,vesc,-0.00086711640840274296,-0.00086711640840274296,nan,nan,0.01,1,0,1,0,0,1786615456.5916934,nan,-0.00014836720104183631,0.0018470499381866669,-0.00086711640840274296,-0.10436716677941593,0.054798937995769847,9.5094242861447356
1786615456.6125112,1786615456.6121807,vesc,0.00018844033081996989,0.00018844033081996989,nan,nan,0.01,1,0,1,0,0,1786615456.6121807,nan,-0.0012260522666965789,0.0029094806043709499,0.00018844033081996989,-0.015328951574897332,0.030395399700868353,9.6780661788773159
1786615456.6318796,1786615456.6314197,vesc,0.00016735691800802484,0.00016735691800802484,nan,nan,0.01,1,0,1,0,0,1786615456.6314197,nan,-0.0022912428416199163,-0.00028626693064290023,0.00016735691800802484,-0.043505415067211395,0.0017848991993609786,9.6297553116470453
1786615456.6519704,1786615456.6514487,vesc,-0.00087570614321554941,-0.00087570614321554941,nan,nan,0.01,1,0,1,0,0,1786615456.6514487,nan,-0.00014836720104183631,-0.0013487319266381099,-0.00087570614321554941,-0.071850424557917236,0.044986140268065355,9.5960063509005522
1786615456.6720228,1786615456.671627,vesc,0.0023255820152224267,0.0023255820152224267,nan,nan,0.01,1,0,1,0,0,1786615456.671627,nan,-0.00018584859264144957,0.00077320096882866945,0.0023255820152224267,-0.033532741665945665,0.044984934279785449,9.5964554170818701
1786615456.691972,1786615456.691694,vesc,0.0012325442420022975,0.0012325442420022975,nan,nan,0.01,1,0,1,0,0,1786615456.691694,nan,-0.0023037368122026708,-0.00028912982881473543,0.0012325442420022975,-0.086107188598053774,0.011482177867890186,9.5861678254228764
1786615456.7120433,1786615456.7117276,vesc,0.00020483814706118484,0.00020483814706118484,nan,nan,0.01,1,0,1,0,0,1786615456.7117276,nan,0.00090432992344739716,-0.00028636783948107899,0.00020483814706118484,-0.015722204253170169,0.01593523477379577,9.7115555232377346
1786615456.7319407,1786615456.731627,vesc,0.00020197492379644315,0.00020197492379644315,nan,nan,0.01,1,0,1,0,0,1786615456.731627,nan,0.00090432992344739716,-0.0013516281143235711,0.00020197492379644315,-0.09546189350489076,0.040274124787874399,9.5669737545010776
1786615456.7519131,1786615456.7515776,vesc,-0.00086711640840274296,-0.00086711640840274296,nan,nan,0.01,1,0,1,0,0,1786615456.7515776,nan,-0.00014836720104183631,0.0018470499381866669,-0.00086711640840274296,-0.071906603511956213,0.030603195136006178,9.6007566290998057
1786615456.7718055,1786615456.7714632,vesc,0.0012661213978319625,0.0012661213978319625,nan,nan,0.01,1,0,1,0,0,1786615456.7714632,nan,-0.00017335514220734541,0.0029065844166854889,0.0012661213978319625,-0.048688378106980679,0.0064850009771504347,9.663239978234742
1786615456.7920465,1786615456.7916131,vesc,0.0022920048593927612,0.0022920048593927612,nan,nan,0.01,1,0,1,0,0,1786615456.7916131,nan,-0.0023162307827854257,-0.0024225143169688554,0.0022920048593927612,-0.052860119974048381,0.064107011355783783,9.6106512878501462
1786615456.8119624,1786615456.8115339,vesc,-0.00087284285493222644,-0.00087284285493222644,nan,nan,0.01,1,0,1,0,0,1786615456.8115339,nan,-0.00014836720104183631,-0.00028347165179561784,-0.00087284285493222644,-0.066555103610069999,0.011571713361398395,9.5528644225281596
1786615456.8324826,1786615456.8322175,vesc,-0.00087284285493222644,-0.00087284285493222644,nan,nan,0.01,1,0,1,0,0,1786615456.8322175,nan,-0.00014836720104183631,-0.00028347165179561784,-0.00087284285493222644,-0.066723640472186929,0.011533085191341996,9.567233370887152
1786615456.8520291,1786615456.8515739,vesc,0.00018271388429048652,0.00018271388429048652,nan,nan,0.01,1,0,1,0,0,1786615456.8515739,nan,-0.0012260522666965789,0.00077896005468596581,0.00018271388429048652,-0.058099261967856641,0.035264010931950196,9.6488347771371537
1786615456.8717227,1786615456.8713875,vesc,0.0012296809537189744,0.0012296809537189744,nan,nan,0.01,1,0,1,0,0,1786615456.8713875,nan,-0.0023037368122026708,-0.0013543901036572276,0.0012296809537189744,-0.048744566197294503,0.044792268515795541,9.6681317590588378
1786615456.8940978,1786615456.8937039,vesc,-0.00089392630025346203,-0.00089392630025346203,nan,nan,0.01,1,0,1,0,0,1786615456.8937039,nan,-0.0012135582961138242,-0.003479219186809468,-0.00089392630025346203,-0.085208325333430146,0.050008314006788623,9.5096359553604088
1786615456.9128752,1786615456.9121542,vesc,0.00021056459359066821,0.00021056459359066821,nan,nan,0.01,1,0,1,0,0,1786615456.9121542,nan,0.00090432992344739716,0.001844153750501206,0.00021056459359066821,-0.067004535242381813,0.021048771260996801,9.5912081255308976
1786615456.9316716,1786615456.9313352,vesc,-0.00088819985372397866,-0.00088819985372397866,nan,nan,0.01,1,0,1,0,0,1786615456.9313352,nan,-0.0012135582961138242,-0.001348698637124484,-0.00088819985372397866,-0.05269158311193145,0.068935642248131757,9.5962952033661395
1786615456.9518342,1786615456.951442,vesc,0.00020197492379644315,0.00020197492379644315,nan,nan,0.01,1,0,1,0,0,1786615456.951442,nan,0.00090432992344739716,-0.0013516281143235711,0.00020197492379644315,-0.057706009289583804,0.044934173136731204,9.6153337383449298
1786615456.9717896,1786615456.9714079,vesc,0.0012700253735275855,0.0012700253735275855,nan,nan,0.01,1,0,1,0,0,1786615456.9714079,nan,0.00089183595286464255,-0.0002892307376529142,0.0012700253735275855,-0.071681887695800306,0.025864647913657279,9.5815859470416171
1786615456.9917042,1786615456.9913571,vesc,-0.00088819985372397866,-0.00088819985372397866,nan,nan,0.01,1,0,1,0,0,1786615456.9913571,nan,-0.0012135582961138242,-0.001348698637124484,-0.00088819985372397866,-0.010820135983595769,0.049490945034708744,9.7021227945436976
1786615457.0116599,1786615457.0113423,vesc,0.0012546685047729958,0.0012546685047729958,nan,nan,0.01,1,0,1,0,0,1786615457.0113423,nan,-0.00017335514220734541,-0.0013544577229817802,0.0012546685047729958,-0.094956292054814817,0.035599933485553237,9.5238540455491147
1786615457.0316887,1786615457.0313401,vesc,-0.00085462269789431371,-0.00085462269789431371,nan,nan,0.01,1,0,1,0,0,1786615457.0313401,nan,0.00091682389403015165,0.001847016648673041,-0.00085462269789431371,-0.033869815390179525,0.011377549248333452,9.6251032666749552
1786615457.0517647,1786615457.0513506,vesc,-0.00088533669547781837,-0.00088533669547781837,nan,nan,0.01,1,0,1,0,0,1786615457.0513506,nan,-0.0012135582961138242,-0.00028343732198469102,-0.00088533669547781837,-0.048238946474668865,0.044908153025964737,9.6250249139818607
1786615457.0716612,1786615457.0712872,vesc,0.00017698743776100315,0.00017698743776100315,nan,nan,0.01,1,0,1,0,0,1786615457.0712872,nan,-0.0012260522666965789,-0.001351561535296319,0.00017698743776100315,-0.11969134921884272,0.016260413068177826,9.5905777956565998
1786615457.091773,1786615457.0913508,vesc,-0.00087284285493222644,-0.00087284285493222644,nan,nan,0.01,1,0,1,0,0,1786615457.0913508,nan,-0.00014836720104183631,-0.00028347165179561784,-0.00087284285493222644,-0.019781588212159917,0.073583009447499848,9.6493879237615374
1786615457.1117084,1786615457.1113193,vesc,-0.0019255363383809071,-0.0019255363383809071,nan,nan,0.01,1,0,1,0,0,1786615457.1113193,nan,0.00092931734446425576,-0.00028064204313740869,-0.0019255363383809071,-0.10442333659718006,0.040416029408810061,9.514174564343989
1786615457.1317341,1786615457.1312947,vesc,0.0012825190840360147,0.0012825190840360147,nan,nan,0.01,1,0,1,0,0,1786615457.1312947,nan,0.0019570270479366309,-0.00028926402716654019,0.0012825190840360147,-0.03426307720472721,0.011287429033234986,9.6586312026603309
1786615457.1517527,1786615457.1512692,vesc,0.00015772639825504655,0.00015772639825504655,nan,nan,0.01,1,0,1,0,0,1786615457.1512692,nan,-0.0033564354971378557,0.0007790266337132178,0.00015772639825504655,-0.062439540697041274,0.040157217014922253,9.6104747019298884
1786615457.1714413,1786615457.17115,vesc,0.0012575316630191562,0.0012575316630191562,nan,nan,0.01,1,0,1,0,0,1786615457.17115,nan,-0.00017335514220734541,-0.0002891974481392882,0.0012575316630191562,-0.066835998380264883,0.021087362885953809,9.5768391771719052
1786615457.1916442,1786615457.191277,vesc,-0.00088819985372397866,-0.00088819985372397866,nan,nan,0.01,1,0,1,0,0,1786615457.191277,nan,-0.0012135582961138242,-0.001348698637124484,-0.00088819985372397866,-0.07213131932811212,-0.012558504135157023,9.619799841851318
1786615457.2119813,1786615457.211241,vesc,0.00018844033081996989,0.00018844033081996989,nan,nan,0.01,1,0,1,0,0,1786615457.211241,nan,-0.0012260522666965789,0.0029094806043709499,0.00018844033081996989,-0.043336887341369312,0.078463899831977102,9.6155921852878237
1786615457.2323868,1786615457.2320273,vesc,0.00019520762730820652,0.00019520762730820652,nan,nan,0.01,1,0,1,0,0,1786615457.2320273,nan,-0.00016086117162459086,0.00077892676517233987,0.00019520762730820652,-0.048070409612551934,0.054526823185703677,9.6106816933728396
1786615457.251415,1786615457.2510858,vesc,0.0012575316630191562,0.0012575316630191562,nan,nan,0.01,1,0,1,0,0,1786615457.2510858,nan,-0.00017335514220734541,-0.0002891974481392882,0.0012575316630191562,-0.081205120328479374,0.021087801427146502,9.576670777353911
1786615457.2714095,1786615457.2711229,vesc,-0.0008824734071944954,-0.0008824734071944954,nan,nan,0.01,1,0,1,0,0,1786615457.2711229,nan,-0.0012135582961138242,0.00078182295285780096,-0.0008824734071944954,-0.090784541051472267,0.068988340281453731,9.5766871495584383
1786615457.2913702,1786615457.2910898,vesc,-0.00084785543391536762,-0.00084785543391536762,nan,nan,0.01,1,0,1,0,0,1786615457.2910898,nan,0.0019820149891021394,-0.00028353823082286983,-0.00084785543391536762,-0.053534267422516102,-0.017477876509293111,9.6679083954113594
1786615457.3114455,1786615457.311106,vesc,-0.00089496711770292476,-0.00089496711770292476,nan,nan,0.01,1,0,1,0,0,1786615457.311106,nan,-0.0022787499113344628,0.00078185624237142701,-0.00089496711770292476,-0.08075568869616756,0.073881071278133703,9.5384943047259867
1786615457.3316367,1786615457.3311851,vesc,0.00018661795751398149,0.00018661795751398149,nan,nan,0.01,1,0,1,0,0,1786615457.3311851,nan,-0.00016086117162459086,-0.0024168550996524372,0.00018661795751398149,-0.067004535242381813,0.030628813250679343,9.591233853280869
1786615457.351563,1786615457.351171,vesc,0.00017698743776100315,0.00017698743776100315,nan,nan,0.01,1,0,1,0,0,1786615457.351171,nan,-0.0012260522666965789,-0.001351561535296319,0.00017698743776100315,-0.091458706772489684,0.049673780166962445,9.6341114874944651
1786615457.37186,1786615457.3711703,vesc,0.00019520762730820652,0.00019520762730820652,nan,nan,0.01,1,0,1,0,0,1786615457.3711703,nan,-0.00016086117162459086,0.00077892676517233987,0.00019520762730820652,-0.043393057159133441,0.054500912710235383,9.6203167357371058
1786615457.3917315,1786615457.3911216,vesc,0.00017985066102574486,0.00017985066102574486,nan,nan,0.01,1,0,1,0,0,1786615457.3911216,nan,-0.0012260522666965789,-0.00028630022015652622,0.00017985066102574486,-0.10876361532636469,0.035729120411900794,9.4757887613867524
1786615457.4115415,1786615457.411238,vesc,0.00018844033081996989,0.00018844033081996989,nan,nan,0.01,1,0,1,0,0,1786615457.411238,nan,-0.0012260522666965789,0.0029094806043709499,0.00018844033081996989,-0.029922798475542578,0.044714427454092487,9.697095358310662
1786615457.4315267,1786615457.4311764,vesc,0.00016163047147854149,0.00016163047147854149,nan,nan,0.01,1,0,1,0,0,1786615457.4311764,nan,-0.0022912428416199163,-0.0024167885206251853,0.00016163047147854149,-0.085601587147977831,0.025968107090033499,9.5430995719708562
1786615457.4516628,1786615457.4512391,vesc,-0.00086997969668606593,-0.00086997969668606593,nan,nan,0.01,1,0,1,0,0,1786615457.4512391,nan,-0.00014836720104183631,0.00078178966334417502,-0.00086997969668606593,-0.076696313873452659,0.030603341316403743,9.6007004958271409
1786615457.4714715,1786615457.4711468,vesc,-0.00088533669547781837,-0.00088533669547781837,nan,nan,0.01,1,0,1,0,0,1786615457.4711468,nan,-0.0012135582961138242,-0.00028343732198469102,-0.00088533669547781837,-0.071569529787722352,0.045050532733192483,9.5720573240067779
1786615457.4913111,1786615457.4910553,vesc,0.00020197492379644315,0.00020197492379644315,nan,nan,0.01,1,0,1,0,0,1786615457.4910553,nan,0.00090432992344739716,-0.0013516281143235711,0.00020197492379644315,-0.099970718232467171,0.025968545631226192,9.542931172152862
1786615457.5115252,1786615457.5111058,vesc,0.00014913672846082149,0.00014913672846082149,nan,nan,0.01,1,0,1,0,0,1786615457.5111058,nan,-0.0033564344568405551,-0.0024167552311115592,0.00014913672846082149,-0.029304829981113834,0.030485995002258903,9.644369843073946
1786615457.5323136,1786615457.531785,vesc,0.00019234440404346486,0.00019234440404346486,nan,nan,0.01,1,0,1,0,0,1786615457.531785,nan,-0.00016086117162459086,-0.00028633454996745305,0.00019234440404346486,-0.095181007870970724,0.016388357461146086,9.5429615776755554
1786615457.5516353,1786615457.5512161,vesc,0.00018557710755522823,0.00018557710755522823,nan,nan,0.01,1,0,1,0,0,1786615457.5512161,nan,-0.0012260522666965789,0.0018442203295284576,0.00018557710755522823,-0.062608077559158204,0.04490859156715743,9.6248565141638664
1786615457.5715466,1786615457.5711069,vesc,0.00018661795751398149,0.00018661795751398149,nan,nan,0.01,1,0,1,0,0,1786615457.5711069,nan,-0.00016086117162459086,-0.0024168550996524372,0.00018661795751398149,-0.067566324782771581,0.025710025598133512,9.6391178737502514
1786615457.5923245,1786615457.5913019,vesc,-0.0019533871777182511,-0.0019533871777182511,nan,nan,0.01,1,0,1,0,0,1786615457.5913019,nan,-0.0012010648456797202,-0.0013458357389526487,-0.0019533871777182511,-0.071400992925605422,0.059459205615222999,9.5577269672727425
1786615457.6116397,1786615457.6111195,vesc,0.00019520762730820652,0.00019520762730820652,nan,nan,0.01,1,0,1,0,0,1786615457.6111195,nan,-0.00016086117162459086,0.00077892676517233987,0.00019520762730820652,-0.057649830335544827,0.0018368663306951305,9.6104279242026678
1786615457.6313403,1786615457.6308775,vesc,0.0012603948212653164,0.0012603948212653164,nan,nan,0.01,1,0,1,0,0,1786615457.6308775,nan,-0.00017335514220734541,0.00077606386700050461,0.0012603948212653164,-0.043393057159133441,0.054500912710235383,9.6203167357371058
1786615457.6517136,1786615457.6509047,vesc,-0.0019601543116600346,-0.0019601543116600346,nan,nan,0.01,1,0,1,0,0,1786615457.6509047,nan,-0.0022662559407517079,0.00078471914054326216,-0.0019601543116600346,-0.048519850381138596,0.049633763283129184,9.6489868047506206
1786615457.6711347,1786615457.6707869,vesc,0.00021342781685540992,0.00021342781685540992,nan,nan,0.01,1,0,1,0,0,1786615457.6707869,nan,0.00090432992344739716,0.002909414025343698,0.00021342781685540992,-0.053028656836165311,0.030538217949288793,9.6249301890842389
1786615457.6913087,1786615457.6909735,vesc,0.0012479011107568872,0.0012479011107568872,nan,nan,0.01,1,0,1,0,0,1786615457.6909735,nan,-0.0012385462372793334,0.00077609715651413066,0.0012479011107568872,-0.090447467327238407,0.045115473374810477,9.5478837640223446
1786615457.7115335,1786615457.7109845,vesc,0.00019520762730820652,0.00019520762730820652,nan,nan,0.01,1,0,1,0,0,1786615457.7109845,nan,-0.00016086117162459086,0.00077892676517233987,0.00019520762730820652,-0.024964551251929201,0.0064327049399217628,9.6826796322244491
1786615457.7311802,1786615457.7308085,vesc,0.0012575316630191562,0.0012575316630191562,nan,nan,0.01,1,0,1,0,0,1786615457.7308085,nan,-0.00017335514220734541,-0.0002891974481392882,0.0012575316630191562,-0.080980413648598315,0.064249537243409094,9.5576275646023987
1786615457.7512243,1786615457.7508564,vesc,0.00017985066102574486,0.00017985066102574486,nan,nan,0.01,1,0,1,0,0,1786615457.7508564,nan,-0.0012260522666965789,-0.00028630022015652622,0.00017985066102574486,-0.05759365138150585,0.030589892719827816,9.6057150681851908
1786615457.77127,1786615457.7708859,vesc,-0.00086034914442379708,-0.00086034914442379708,nan,nan,0.01,1,0,1,0,0,1786615457.7708859,nan,0.00091682389403015165,-0.00028350494130924384,-0.00086034914442379708,-0.081429845280910129,0.035406390639177943,9.5958683566052514
1786615457.7912729,1786615457.7908826,vesc,-0.0040991183043498983,-0.0040991183043498983,nan,nan,0.01,1,0,1,0,0,1786615457.7908826,nan,-0.0022412679995861993,-0.0024053369279378443,-0.0040991183043498983,-0.038603355933911843,0.049710727262446852,9.6203600051347848
1786615457.8112042,1786615457.810837,vesc,0.00018661795751398149,0.00018661795751398149,nan,nan,0.01,1,0,1,0,0,1786615457.810837,nan,-0.00016086117162459086,-0.0024168550996524372,0.00018661795751398149,-0.11839922413967141,0.030926546175418679,9.4804525007906477
1786615457.8312042,1786615457.8308189,vesc,0.001238270558494618,0.001238270558494618,nan,nan,0.01,1,0,1,0,0,1786615457.8308189,nan,-0.0023037378524999718,0.0018413907208702485,0.001238270558494618,-0.039221324428340587,0.0064589077761851854,9.6729311538716729
1786615457.851193,1786615457.8507967,vesc,0.0012786151083403919,0.0012786151083403919,nan,nan,0.01,1,0,1,0,0,1786615457.8507967,nan,0.00089183595286464255,0.0029065511271718623,0.0012786151083403919,-0.038603346797636995,0.016180562026008261,9.6202699580098852
1786615457.8716426,1786615457.8712716,vesc,0.00019807085057294823,0.00019807085057294823,nan,nan,0.01,1,0,1,0,0,1786615457.8712716,nan,-0.00016086117162459086,0.0018441870400148319,0.00019807085057294823,-0.07686485073556959,0.030564713146347344,9.6150694441861333
1786615457.8912065,1786615457.8908412,vesc,0.0012575316630191562,0.0012575316630191562,nan,nan,0.01,1,0,1,0,0,1786615457.8908412,nan,-0.00017335514220734541,-0.0002891974481392882,0.0012575316630191562,-0.048014230658512957,0.073699771040054429,9.6059431096053913
1786615457.910974,1786615457.9106021,vesc,0.0012507643990402101,0.0012507643990402101,nan,nan,0.01,1,0,1,0,0,1786615457.9106021,nan,-0.0012385462372793334,0.0018413574313566226,0.0012507643990402101,-0.099802172234075393,0.0068470898219175069,9.528510768293927
1786615457.9308264,1786615457.9305389,vesc,0.00018557710755522823,0.00018557710755522823,nan,nan,0.01,1,0,1,0,0,1786615457.9305389,nan,-0.0012260522666965789,0.0018442203295284576,0.00018557710755522823,-0.034600150928961071,0.025580217405096306,9.6874076910032727
1786615457.9508445,1786615457.9505105,vesc,-0.00088819985372397866,-0.00088819985372397866,nan,nan,0.01,1,0,1,0,0,1786615457.9505105,nan,-0.0012135582961138242,-0.001348698637124484,-0.00088819985372397866,-0.10509750231819748,0.021101469294318775,9.5716000717231964
1786615457.9709361,1786615457.9705844,vesc,0.0012757519500942313,0.0012757519500942313,nan,nan,0.01,1,0,1,0,0,1786615457.9705844,nan,0.00089183595286464255,0.0018412908523293707,0.0012757519500942313,-0.091009256867628174,0.035406682999973071,9.5957549206167414
1786615457.9909916,1786615457.9906445,vesc,-0.00089783040598624762,-0.00089783040598624762,nan,nan,0.01,1,0,1,0,0,1786615457.9906445,nan,-0.0022787488710371622,-0.00028340403247106507,-0.00089783040598624762,-0.029585724751308717,-0.012688604688989358,9.6682019256496687
1786615458.0109587,1786615458.0106781,vesc,0.00015772639825504655,0.00015772639825504655,nan,nan,0.01,1,0,1,0,0,1786615458.0106781,nan,-0.0033564354971378557,0.0007790266337132178,0.00015772639825504655,-0.071344813971566445,0.054682066767917092,9.5529240641303659
1786615458.0308867,1786615458.0305841,vesc,0.00016449369474328318,0.00016449369474328318,nan,nan,0.01,1,0,1,0,0,1786615458.0305841,nan,-0.0022912428416199163,-0.0013515272054853921,0.00016449369474328318,-0.057649830335544827,0.02578698957745118,9.6104922435775961
1786615458.0511498,1786615458.0506561,vesc,-0.00086711640840274296,-0.00086711640840274296,nan,nan,0.01,1,0,1,0,0,1786615458.0506561,nan,-0.00014836720104183631,0.0018470499381866669,-0.00086711640840274296,-0.10058867759062107,0.025826933371085659,9.5956169263214406
1786615458.0709414,1786615458.0705795,vesc,-0.0019351668906431761,-0.0019351668906431761,nan,nan,0.01,1,0,1,0,0,1786615458.0705795,nan,-0.00013587375060773214,0.00078465256151601006,-0.0019351668906431761,-0.066948356288342836,0.030641677125665012,9.586443814013478
1786615458.0910435,1786615458.0906746,vesc,-0.0008824734071944954,-0.0008824734071944954,nan,nan,0.01,1,0,1,0,0,1786615458.0906746,nan,-0.0012135582961138242,0.00078182295285780096,-0.0008824734071944954,-0.039277503382379564,0.016026085890882058,9.6777469208890352
1786615458.1111708,1786615458.1107376,vesc,-0.0019312629149475528,-0.0019312629149475528,nan,nan,0.01,1,0,1,0,0,1786615458.1107376,nan,0.00092931734446425576,-0.0024111625928223929,-0.0019312629149475528,-0.12330129240924581,0.026110925338453939,9.4899635821777792
1786615458.1312079,1786615458.1306944,vesc,0.00018271388429048652,0.00018271388429048652,nan,nan,0.01,1,0,1,0,0,1786615458.1306944,nan,-0.0012260522666965789,0.00077896005468596581,0.00018271388429048652,-0.039108966520262634,-0.0078853726407182023,9.6633136531551145
1786615458.1519368,1786615458.1508975,vesc,0.00018661795751398149,0.00018661795751398149,nan,nan,0.01,1,0,1,0,0,1786615458.1508975,nan,-0.00016086117162459086,-0.0024168550996524372,0.00018661795751398149,-0.081261299282518351,0.030654979541843375,9.5814853749280928
1786615458.1711349,1786615458.1706953,vesc,0.0012507643990402101,0.0012507643990402101,nan,nan,0.01,1,0,1,0,0,1786615458.1706953,nan,-0.0012385462372793334,0.0018413574313566226,0.0012507643990402101,-0.057874546151700734,0.059265626223748313,9.6297412783288792
1786615458.1908927,1786615458.1905947,vesc,-0.0030214373998843592,-0.0030214373998843592,nan,nan,0.01,1,0,1,0,0,1786615458.1905947,nan,-0.0011885708750969657,-0.0024082331156233053,-0.0030214373998843592,-0.11450837704279859,0.011560347835487761,9.5570931290689032
1786615458.2117279,1786615458.211267,vesc,-0.00087284285493222644,-0.00087284285493222644,nan,nan,0.01,1,0,1,0,0,1786615458.211267,nan,-0.00014836720104183631,-0.00028347165179561784,-0.00087284285493222644,-0.024796014389812271,0.068741624315464378,9.6684779142402704
1786615458.2311156,1786615458.2306635,vesc,-0.0008824734071944954,-0.0008824734071944954,nan,nan,0.01,1,0,1,0,0,1786615458.2306635,nan,-0.0012135582961138242,0.00078182295285780096,-0.0008824734071944954,-0.094843934146736864,0.021255653068649849,9.5142353753893758
1786615458.2514124,1786615458.2509875,vesc,-0.00087570614321554941,-0.00087570614321554941,nan,nan,0.01,1,0,1,0,0,1786615458.2509875,nan,-0.00014836720104183631,-0.0013487319266381099,-0.00087570614321554941,-0.076808671781530613,0.025787610844140829,9.6102677104869372
1786615458.2710397,1786615458.2705889,vesc,0.0012507643990402101,0.0012507643990402101,nan,nan,0.01,1,0,1,0,0,1786615458.2705889,nan,-0.0012385462372793334,0.0018413574313566226,0.0012507643990402101,-0.052635404157892474,0.025838335442095683,9.5913893892238775
1786615458.2911596,1786615458.2905483,vesc,0.0012757519500942313,0.0012757519500942313,nan,nan,0.01,1,0,1,0,0,1786615458.2905483,nan,0.00089183595286464255,0.0018412908523293707,0.0012757519500942313,-0.062383361743002297,0.016219957643151872,9.6056203432875691
1786615458.3108907,1786615458.3104525,vesc,-0.0019572911534138744,-0.0019572911534138744,nan,nan,0.01,1,0,1,0,0,1786615458.3104525,nan,-0.0022662559407517079,0.0018499794153857543,-0.0019572911534138744,-0.04389867688175908,0.087915193436504779,9.6635147973821631
1786615458.3311007,1786615458.330617,vesc,-0.00088819985372397866,-0.00088819985372397866,nan,nan,0.01,1,0,1,0,0,1786615458.330617,nan,-0.0012135582961138242,-0.001348698637124484,-0.00088819985372397866,-0.043168341342977534,0.040182323498203942,9.6011203259289459
1786615458.3509529,1786615458.3505511,vesc,0.00020093407383768989,0.00020093407383768989,nan,nan,0.01,1,0,1,0,0,1786615458.3505511,nan,-0.00016086117162459086,0.0029094473148573237,0.00020093407383768989,-0.048238946474668865,0.044908153025964737,9.6250249139818607
1786615458.370892,1786615458.3705277,vesc,0.0012489419282063498,0.0012489419282063498,nan,nan,0.01,1,0,1,0,0,1786615458.3705277,nan,-0.00017335514220734541,-0.0034849793129640648,0.0012489419282063498,-0.077370461321920381,0.03044886518127754,9.658177458706291
1786615458.3911917,1786615458.390456,vesc,0.00019807085057294823,0.00019807085057294823,nan,nan,0.01,1,0,1,0,0,1786615458.390456,nan,-0.00016086117162459086,0.0018441870400148319,0.00019807085057294823,-0.085433041149586053,0.059536863951429098,9.5288206707367635
1786615458.411047,1786615458.4105375,vesc,0.00018271388429048652,0.00018271388429048652,nan,nan,0.01,1,0,1,0,0,1786615458.4105375,nan,-0.0012260522666965789,0.00077896005468596581,0.00018271388429048652,-0.048463662290824772,0.0065364930221925022,9.6440809906083587
1786615458.4311879,1786615458.4304113,vesc,0.00019807085057294823,0.00019807085057294823,nan,nan,0.01,1,0,1,0,0,1786615458.4304113,nan,-0.00016086117162459086,0.0018441870400148319,0.00019807085057294823,-0.057031861841116083,0.069038809063712847,9.5579210948407081
1786615458.4511397,1786615458.4506285,vesc,-0.0019533871777182511,-0.0019533871777182511,nan,nan,0.01,1,0,1,0,0,1786615458.4506285,nan,-0.0012010648456797202,-0.0013458357389526487,-0.0019533871777182511,-0.071850424557917236,0.035406061733283423,9.5959806231505809
1786615458.470948,1786615458.4703333,vesc,0.0012268176654356515,0.0012268176654356515,nan,nan,0.01,1,0,1,0,0,1786615458.4703333,nan,-0.0023037368122026708,-0.0024196514187970202,0.0012268176654356515,-0.058043083013817665,0.040066950619426223,9.6440587711879289
1786615458.4911432,1786615458.4905601,vesc,0.0012603948212653164,0.0012603948212653164,nan,nan,0.01,1,0,1,0,0,1786615458.4905601,nan,-0.00017335514220734541,0.00077606386700050461,0.0012603948212653164,-0.090335109419160453,0.04035119840249024,9.5382919910557575
1786615458.5112796,1786615458.5106006,vesc,-0.0019323037323970157,-0.0019323037323970157,nan,nan,0.01,1,0,1,0,0,1786615458.5106006,nan,-0.00013587375060773214,0.001849912836358502,-0.0019323037323970157,-0.044011034789837034,0.016039132491364683,9.6729007483489795
1786615458.5309968,1786615458.5304976,vesc,0.00018948118077872315,0.00018948118077872315,nan,nan,0.01,1,0,1,0,0,1786615458.5304976,nan,-0.00016086117162459086,-0.001351594824809945,0.00018948118077872315,-0.10881980341667852,0.064456419051062142,9.4806559839040574
1786615458.551142,1786615458.5506952,vesc,-0.0019255363383809071,-0.0019255363383809071,nan,nan,0.01,1,0,1,0,0,1786615458.5506952,nan,0.00092931734446425576,-0.00028064204313740869,-0.0019255363383809071,-0.05759365138150585,0.0018497302056807996,9.6056378849352768
1786615458.571182,1786615458.5705903,vesc,0.0001933852540022181,0.0001933852540022181,nan,nan,0.01,1,0,1,0,0,1786615458.5705903,nan,0.00090432992344739716,-0.004547409979148348,0.0001933852540022181,-0.076921029689608567,0.0257618465490701,9.6198466195785386
1786615458.5914512,1786615458.5906701,vesc,0.0012507643990402101,0.0012507643990402101,nan,nan,0.01,1,0,1,0,0,1786615458.5906701,nan,-0.0012385462372793334,0.0018413574313566226,0.0012507643990402101,-0.057368935565349943,0.059381510733917509,9.5866332638087215
1786615458.6117249,1786615458.6106045,vesc,0.0012728886618109084,0.0012728886618109084,nan,nan,0.01,1,0,1,0,0,1786615458.6106045,nan,0.00089183595286464255,0.00077602953718957789,0.0012728886618109084,-0.11422747313632886,0.021204745745198039,9.5331698299251002
1786615458.6307838,1786615458.6303434,vesc,-0.0008824734071944954,-0.0008824734071944954,nan,nan,0.01,1,0,1,0,0,1786615458.6303434,nan,-0.0012135582961138242,0.00078182295285780096,-0.0008824734071944954,-0.015609846345092215,0.039911049225423767,9.7020409335210616
1786615458.6510217,1786615458.6505611,vesc,-0.0019601543116600346,-0.0019601543116600346,nan,nan,0.01,1,0,1,0,0,1786615458.6505611,nan,-0.0022662559407517079,0.00078471914054326216,-0.0019601543116600346,-0.029754261613425648,0.020802932377392835,9.6826620905767413
1786615458.6708891,1786615458.670373,vesc,-0.00086321230266995738,-0.00086321230266995738,nan,nan,0.01,1,0,1,0,0,1786615458.670373,nan,0.00091682389403015165,-0.0013487652161517359,-0.00086321230266995738,-0.071906603511956213,0.054553318382762228,9.600820948474734
1786615458.6907265,1786615458.6903415,vesc,0.00017022014127276652,0.00017022014127276652,nan,nan,0.01,1,0,1,0,0,1786615458.6903415,nan,-0.0022912438819172173,0.00077899334419959175,0.00017022014127276652,-0.062271003834924343,0.025825727382805752,9.596067161945939
1786615458.710973,1786615458.7104161,vesc,0.00018271388429048652,0.00018271388429048652,nan,nan,0.01,1,0,1,0,0,1786615458.7104161,nan,-0.0012260522666965789,0.00077896005468596581,0.00018271388429048652,-0.039052787566223657,-0.0078725087657325332,9.6585236138877235
1786615458.7308226,1786615458.7303698,vesc,-0.00088533669547781837,-0.00088533669547781837,nan,nan,0.01,1,0,1,0,0,1786615458.7303698,nan,-0.0012135582961138242,-0.00028343732198469102,-0.00088533669547781837,-0.029585724751308717,0.083111851752935451,9.6684603725925626
1786615458.7508059,1786615458.7503588,vesc,0.00019520762730820652,0.00019520762730820652,nan,nan,0.01,1,0,1,0,0,1786615458.7503588,nan,-0.00016086117162459086,0.00077892676517233987,0.00019520762730820652,-0.067173072104498743,0.021010143090940403,9.60557707388989
1786615458.7706206,1786615458.7701781,vesc,0.00017698743776100315,0.00017698743776100315,nan,nan,0.01,1,0,1,0,0,1786615458.7701781,nan,-0.0012260522666965789,-0.001351561535296319,0.00017698743776100315,-0.086331904414209681,0.073700977028334336,9.6054940434240734
1786615458.7904246,1786615458.7901456,vesc,0.00018271388429048652,0.00018271388429048652,nan,nan,0.01,1,0,1,0,0,1786615458.7901456,nan,-0.0012260522666965789,0.00077896005468596581,0.00018271388429048652,-0.025076909160007155,0.044727145148680592,9.6923614523159358
1786615458.8115287,1786615458.8104846,vesc,0.00023555206337146287,0.00023555206337146287,nan,nan,0.01,1,0,1,0,0,1786615458.8104846,nan,0.0030347123736656984,0.0018440861311766529,0.00023555206337146287,-0.10915687714091238,0.054799120721266803,9.5093681528720708
1786615458.8306079,1786615458.8302059,vesc,-0.00089783040598624762,-0.00089783040598624762,nan,nan,0.01,1,0,1,0,0,1786615458.8302059,nan,-0.0022787488710371622,-0.00028340403247106507,-0.00089783040598624762,-0.053309551606360195,0.030473825484161665,9.6488792159780132
1786615458.8513849,1786615458.8509111,vesc,0.00018948118077872315,0.00018948118077872315,nan,nan,0.01,1,0,1,0,0,1786615458.8509111,nan,-0.00016086117162459086,-0.001351594824809945,0.00018948118077872315,-0.072187498282151097,0.035328841938270017,9.6247185198685656
1786615458.8708951,1786615458.8702371,vesc,-0.00087284285493222644,-0.00087284285493222644,nan,nan,0.01,1,0,1,0,0,1786615458.8702371,nan,-0.00014836720104183631,-0.00028347165179561784,-0.00087284285493222644,-0.052972477882126334,0.04492116308134797,9.620178741441805
1786615458.8912115,1786615458.8902082,vesc,-0.00089210395945676425,-0.00089210395945676425,nan,nan,0.01,1,0,1,0,0,1786615458.8902082,nan,-0.0022787499113344628,0.001847116517213919,-0.00089210395945676425,-0.043786318973681126,0.059200795217428492,9.6538575355974672
1786615458.9109626,1786615458.9103327,vesc,-0.001950524019472091,-0.001950524019472091,nan,nan,0.01,1,0,1,0,0,1786615458.9103327,nan,-0.0012010648456797202,-0.00028057442381285586,-0.001950524019472091,-0.1040862628729462,0.040493285748922858,9.4854366676260042
1786615458.9303176,1786615458.9300318,vesc,-0.0030128481852202027,-0.0030128481852202027,nan,nan,0.01,1,0,1,0,0,1786615458.9300318,nan,-0.0011885708750969657,0.00078754874920147137,-0.0030128481852202027,-0.010820135983595769,0.039910903045026203,9.7020970667937263
1786615458.9504001,1786615458.9500759,vesc,-0.00087856930146170981,-0.00087856930146170981,nan,nan,0.01,1,0,1,0,0,1786615458.9500759,nan,-0.00014836720104183631,-0.002413992201480602,-0.00087856930146170981,-0.10008307614054512,0.035522859870937395,9.5525358089944348
1786615458.9711874,1786615458.9705362,vesc,0.0012546685047729958,0.0012546685047729958,nan,nan,0.01,1,0,1,0,0,1786615458.9705362,nan,-0.00017335514220734541,-0.0013544577229817802,0.0012546685047729958,-0.048126588566590911,0.0018236735498149415,9.6153302300153882
1786615458.9906487,1786615458.9902234,vesc,0.0023352125674846952,0.0023352125674846952,nan,nan,0.01,1,0,1,0,0,1786615458.9902234,nan,0.00087934250243053844,-0.0002920936358247494,0.0023352125674846952,-0.091009256867628174,0.0018765177635344799,9.5956648734918417
1786615459.0114937,1786615459.0101688,vesc,0.00018557710755522823,0.00018557710755522823,nan,nan,0.01,1,0,1,0,0,1786615459.0101688,nan,-0.0012260522666965789,0.0018442203295284576,0.00018557710755522823,-0.038884250704106726,0.040066329352736574,9.6442833042785878
1786615459.0302715,1786615459.0299981,vesc,-0.00087284285493222644,-0.00087284285493222644,nan,nan,0.01,1,0,1,0,0,1786615459.0299981,nan,-0.00014836720104183631,-0.00028347165179561784,-0.00087284285493222644,-0.090503655417552231,0.016362483530777183,9.5525966200398216
1786615459.0504518,1786615459.0500457,vesc,-0.00090069356423240813,-0.00090069356423240813,nan,nan,0.01,1,0,1,0,0,1786615459.0500457,nan,-0.0022787488710371622,-0.001348664307313557,-0.00090069356423240813,-0.094787746056423039,0.040428600923000602,9.509497961065108
1786615459.0703781,1786615459.0700588,vesc,-0.00089783040598624762,-0.00089783040598624762,nan,nan,0.01,1,0,1,0,0,1786615459.0700588,nan,-0.0022787488710371622,-0.00028340403247106507,-0.00089783040598624762,-0.06722925105853772,0.035367323927928851,9.610405704782238
1786615459.0903313,1786615459.0900633,vesc,-0.001940893467209822,-0.001940893467209822,nan,nan,0.01,1,0,1,0,0,1786615459.0900633,nan,-0.00013587375060773214,-0.0013458690284662747,-0.001940893467209822,-0.062945151283392065,0.030461290515070516,9.6535558192568942
1786615459.1104352,1786615459.1100183,vesc,0.0023073619882216763,0.0023073619882216763,nan,nan,0.01,1,0,1,0,0,1786615459.1100183,nan,-0.0012510396877134374,-0.0013572873316399895,0.0023073619882216763,-0.067173072104498743,0.049750269059988028,9.605654257139804
1786615459.1302543,1786615459.1299076,vesc,-0.0008824734071944954,-0.0008824734071944954,nan,nan,0.01,1,0,1,0,0,1786615459.1299076,nan,-0.0012135582961138242,0.00078182295285780096,-0.0008824734071944954,-0.057762188243622781,0.0066011413030153676,9.6200196971692549
1786615459.1503198,1786615459.1499584,vesc,0.0012325442420022975,0.0012325442420022975,nan,nan,0.01,1,0,1,0,0,1786615459.1499584,nan,-0.0023037368122026708,-0.00028912982881473543,0.0012325442420022975,-0.043673961065603173,0.064016598779890188,9.6442914903808514
1786615459.1704237,1786615459.1700213,vesc,0.00018271388429048652,0.00018271388429048652,nan,nan,0.01,1,0,1,0,0,1786615459.1700213,nan,-0.0012260522666965789,0.00077896005468596581,0.00018271388429048652,-0.052860119974048381,0.040156888109027733,9.6105869684752179
1786615459.1905813,1786615459.1899817,vesc,0.00020483814706118484,0.00020483814706118484,nan,nan,0.01,1,0,1,0,0,1786615459.1899817,nan,0.00090432992344739716,-0.00028636783948107899,0.00020483814706118484,-0.095237177688734853,0.049905658822599008,9.5478404946246656
1786615459.2103469,1786615459.2099385,vesc,-0.00084499214563204465,-0.00084499214563204465,nan,nan,0.01,1,0,1,0,0,1786615459.2099385,nan,0.0019820149891021394,0.00078172204401962214,-0.00084499214563204465,-0.034375435112805164,0.0016816227484817148,9.668184384001961
1786615459.2304187,1786615459.2299573,vesc,-0.00088533669547781837,-0.00088533669547781837,nan,nan,0.01,1,0,1,0,0,1786615459.2299573,nan,-0.0012135582961138242,-0.00028343732198469102,-0.00088533669547781837,-0.085095967425352192,0.08835424626058952,9.5001599572686928
1786615459.2503667,1786615459.2499764,vesc,-0.00089783040598624762,-0.00089783040598624762,nan,nan,0.01,1,0,1,0,0,1786615459.2499764,nan,-0.0022787488710371622,-0.00028340403247106507,-0.00089783040598624762,-0.062102466972807413,0.0498144787996182,9.581762532961875
1786615459.2703328,1786615459.2699184,vesc,0.00016735691800802484,0.00016735691800802484,nan,nan,0.01,1,0,1,0,0,1786615459.2699184,nan,-0.0022912428416199163,-0.00028626693064290023,0.00016735691800802484,-0.043168341342977534,0.044972362765594909,9.6011331898039316
1786615459.2905543,1786615459.2901525,vesc,-0.00087284285493222644,-0.00087284285493222644,nan,nan,0.01,1,0,1,0,0,1786615459.2901525,nan,-0.00014836720104183631,-0.00028347165179561784,-0.00087284285493222644,-0.10042014986477898,0.030655600808533023,9.5812608418374339
1786615459.3099082,1786615459.3096759,vesc,0.00017880981106699161,0.00017880981106699161,nan,nan,0.01,1,0,1,0,0,1786615459.3096759,nan,-0.0022912438819172173,0.003974775209024368,0.00017880981106699161,-0.029473366843230764,0.03523736955449408,9.658751655307924
1786615459.3304393,1786615459.3299611,vesc,0.0012450379525107266,0.0012450379525107266,nan,nan,0.01,1,0,1,0,0,1786615459.3299611,nan,-0.0012385462372793334,-0.00028916311832836143,0.0012450379525107266,-0.11355332568786114,0.059679389839054409,9.475796947489016
1786615459.3503056,1786615459.3499086,vesc,0.00022019511334364655,0.00022019511334364655,nan,nan,0.01,1,0,1,0,0,1786615459.3499086,nan,0.0019695210185193849,0.00077885914584778699,0.00022019511334364655,-0.039052787566223657,0.030447659192997634,9.6586265248876089
1786615459.3702078,1786615459.3698578,vesc,0.00017985066102574486,0.00017985066102574486,nan,nan,0.01,1,0,1,0,0,1786615459.3698578,nan,-0.0012260522666965789,-0.00028630022015652622,0.00017985066102574486,-0.10070103549869902,0.040171286878187829,9.6052355964811795
1786615459.3902001,1786615459.3898501,vesc,-0.00088533669547781837,-0.00088533669547781837,nan,nan,0.01,1,0,1,0,0,1786615459.3898501,nan,-0.0012135582961138242,-0.00028343732198469102,-0.00088533669547781837,-0.076696313873452659,0.054553464563159793,9.6007648152020693
1786615459.4109342,1786615459.4099245,vesc,-0.003008943949450255,-0.003008943949450255,nan,nan,0.01,1,0,1,0,0,1786615459.4099245,nan,-0.00012337978002497762,-0.0024082664051369314,-0.003008943949450255,-0.095630439503282538,0.016285373371061951,9.5812783834851416
1786615459.4301453,1786615459.4298391,vesc,-0.00087961024894833511,-0.00087961024894833511,nan,nan,0.01,1,0,1,0,0,1786615459.4298391,nan,-0.0012135582961138242,0.0018470832277002929,-0.00087961024894833511,-0.034431614066844141,0.054359008089299721,9.6731159258941943
1786615459.4522264,1786615459.4517286,vesc,-0.00087570614321554941,-0.00087570614321554941,nan,nan,0.01,1,0,1,0,0,1786615459.4517286,nan,-0.00014836720104183631,-0.0013487319266381099,-0.00087570614321554941,-0.029473366843230764,0.025657327564811538,9.6587259275579527
1786615459.4711254,1786615459.4698122,vesc,0.00019234440404346486,0.00019234440404346486,nan,nan,0.01,1,0,1,0,0,1786615459.4698122,nan,-0.00016086117162459086,-0.00028633454996745305,0.00019234440404346486,-0.076527777011335729,0.040222011476142683,9.5863572752181199
1786615459.4902802,1786615459.4897549,vesc,0.00020483814706118484,0.00020483814706118484,nan,nan,0.01,1,0,1,0,0,1786615459.4897549,nan,0.00090432992344739716,-0.00028636783948107899,0.00020483814706118484,-0.080980413648598315,0.04508945326404401,9.557576109102456
1786615459.5058539,1786615459.5049999,vesc,0.0012479011107568872,0.0012479011107568872,nan,nan,0.01,1,0,1,0,0,1786615459.5049999,nan,-0.0012385462372793334,0.00077609715651413066,0.0012479011107568872,-0.053197193698282241,0.020919547789549853,9.63927340969326
1786615459.5316172,1786615459.530587,vesc,-0.00086997969668606593,-0.00086997969668606593,nan,nan,0.01,1,0,1,0,0,1786615459.530587,nan,-0.00014836720104183631,0.00078178966334417502,-0.00086997969668606593,-0.080081541247699839,0.069245508145868939,9.4810056474150315
1786615459.5502226,1786615459.5497739,vesc,0.00018271388429048652,0.00018271388429048652,nan,nan,0.01,1,0,1,0,0,1786615459.5497739,nan,-0.0012260522666965789,0.00077896005468596581,0.00018271388429048652,-0.057200398703233013,0.016309931677852774,9.5721485405748581
1786615459.5704474,1786615459.569813,vesc,-0.0030032176329579342,-0.0030032176329579342,nan,nan,0.01,1,0,1,0,0,1786615459.569813,nan,-0.00012337978002497762,-0.00027774585545194748,-0.0030032176329579342,-0.071850424557917236,0.059356184980039473,9.5960449425255092
1786615459.5901566,1786615459.5896833,vesc,0.0012575316630191562,0.0012575316630191562,nan,nan,0.01,1,0,1,0,0,1786615459.5896833,nan,-0.00017335514220734541,-0.0002891974481392882,0.0012575316630191562,-0.043224520297016511,0.02100937564385319,9.6058577402532137
1786615459.6102262,1786615459.6098263,vesc,-0.00088819985372397866,-0.00088819985372397866,nan,nan,0.01,1,0,1,0,0,1786615459.6098263,nan,-0.0012135582961138242,-0.001348698637124484,-0.00088819985372397866,-0.085601587147977831,0.045128191069398582,9.5431510274707989
1786615459.6300979,1786615459.6296866,vesc,0.00019520762730820652,0.00019520762730820652,nan,nan,0.01,1,0,1,0,0,1786615459.6296866,nan,-0.00016086117162459086,0.00077892676517233987,0.00019520762730820652,-0.034375435112805164,0.03042174871752934,9.668261567251875
1786615459.6500611,1786615459.6496434,vesc,0.0012546685047729958,0.0012546685047729958,nan,nan,0.01,1,0,1,0,0,1786615459.6496434,nan,-0.00017335514220734541,-0.0013544577229817802,0.0012546685047729958,-0.038378630981481088,0.016232054071050328,9.6011121398266823
1786615459.6707637,1786615459.6698022,vesc,0.00019234440404346486,0.00019234440404346486,nan,nan,0.01,1,0,1,0,0,1786615459.6698022,nan,-0.00016086117162459086,-0.00028633454996745305,0.00019234440404346486,-0.090728371233708138,0.035471075465100199,9.5718070631661476
1786615459.6899903,1786615459.6895401,vesc,-0.0019476606011516052,-0.0019476606011516052,nan,nan,0.01,1,0,1,0,0,1786615459.6895401,nan,-0.0012010648456797202,0.00078468585102963622,-0.0019476606011516052,-0.048182767520629888,0.054501058890632947,9.620260602464441
1786615459.7103171,1786615459.7098346,vesc,-0.00088143258974503278,-0.00088143258974503278,nan,nan,0.01,1,0,1,0,0,1786615459.7098346,nan,-0.00014836720104183631,-0.0034792535166203948,-0.00088143258974503278,-0.10932540486675446,0.021230327314771813,9.5236470541061635
1786615459.7301595,1786615459.7296715,vesc,0.00019520762730820652,0.00019520762730820652,nan,nan,0.01,1,0,1,0,0,1786615459.7296715,nan,-0.00016086117162459086,0.00077892676517233987,0.00019520762730820652,-0.005861893328119816,0.063899508281441086,9.687848571082327
1786615459.7498934,1786615459.7495067,vesc,0.0012642990570352647,0.0012642990570352647,nan,nan,0.01,1,0,1,0,0,1786615459.7495067,nan,0.00089183595286464255,-0.0024197512873378982,0.0012642990570352647,-0.10431097868910211,0.026071712446807283,9.5045570636274306
1786615459.7697926,1786615459.7694604,vesc,-0.0008824734071944954,-0.0008824734071944954,nan,nan,0.01,1,0,1,0,0,1786615459.7694604,nan,-0.0012135582961138242,0.00078182295285780096,-0.0008824734071944954,-0.07213131932811212,0.0066015798442080609,9.6198512973512607
1786615459.7899745,1786615459.7895398,vesc,0.00019520762730820652,0.00019520762730820652,nan,nan,0.01,1,0,1,0,0,1786615459.7895398,nan,-0.00016086117162459086,0.00077892676517233987,0.00019520762730820652,-0.067622503736810557,0.016117119733465302,9.643882185267671
1786615459.8101199,1786615459.809675,vesc,0.0012479011107568872,0.0012479011107568872,nan,nan,0.01,1,0,1,0,0,1786615459.809675,nan,-0.0012385462372793334,0.00077609715651413066,0.0012479011107568872,-0.052635404157892474,0.0402083801540698,9.5914279808488345
1786615459.8299901,1786615459.829612,vesc,-0.00090069356423240813,-0.00090069356423240813,nan,nan,0.01,1,0,1,0,0,1786615459.829612,nan,-0.0022787488710371622,-0.001348664307313557,-0.00090069356423240813,-0.10515367213596161,0.0019284848948686317,9.5763374860474642
1786615459.850687,1786615459.8496196,vesc,-0.00088819985372397866,-0.00088819985372397866,nan,nan,0.01,1,0,1,0,0,1786615459.8496196,nan,-0.0012135582961138242,-0.001348698637124484,-0.00088819985372397866,-0.080924234694559338,0.054682359128712221,9.5528117975850364
1786615459.8700669,1786615459.8696382,vesc,0.00020197492379644315,0.00020197492379644315,nan,nan,0.01,1,0,1,0,0,1786615459.8696382,nan,0.00090432992344739716,-0.0013516281143235711,0.00020197492379644315,-0.03392600348049335,0.044894814064686983,9.6299833530672458
1786615459.8899038,1786615459.8895779,vesc,0.0023073619882216763,0.0023073619882216763,nan,nan,0.01,1,0,1,0,0,1786615459.8895779,nan,-0.0012510396877134374,-0.0013572873316399895,0.0023073619882216763,-0.072693108868501888,0.020842912716126705,9.6677867733205858
1786615459.9098852,1786615459.9095259,vesc,-0.0019476606011516052,-0.0019476606011516052,nan,nan,0.01,1,0,1,0,0,1786615459.9095259,nan,-0.0012010648456797202,0.00078468585102963622,-0.0019476606011516052,-0.071232456063488492,0.040337713260814922,9.5433065634138075
1786615459.9298277,1786615459.9294684,vesc,-0.0008824734071944954,-0.0008824734071944954,nan,nan,0.01,1,0,1,0,0,1786615459.9294684,nan,-0.0012135582961138242,0.00078182295285780096,-0.0008824734071944954,-0.063113688145508995,0.0016825363759664924,9.6678475843659726
1786615459.9498951,1786615459.9495988,vesc,0.00019911170053170147,0.00019911170053170147,nan,nan,0.01,1,0,1,0,0,1786615459.9495988,nan,0.00090432992344739716,-0.0024168883891660629,0.00019911170053170147,-0.071850424557917236,0.059356184980039473,9.5960449425255092
1786615459.9696138,1786615459.9693365,vesc,0.0023227191170505914,0.0023227191170505914,nan,nan,0.01,1,0,1,0,0,1786615459.9693365,nan,-0.00018584859264144957,-0.00029206034631112335,0.0023227191170505914,-0.05742511451938892,0.03541852361217579,9.5913589837011841
1786615459.9899819,1786615459.9894931,vesc,-0.00084212898738588436,-0.00084212898738588436,nan,nan,0.01,1,0,1,0,0,1786615459.9894931,nan,0.0019820149891021394,0.0018469823188621143,-0.00084212898738588436,-0.047733335888318074,0.025863917011669457,9.5818666134049408
1786615460.0099707,1786615460.0095675,vesc,0.00019807085057294823,0.00019807085057294823,nan,nan,0.01,1,0,1,0,0,1786615460.0095675,nan,-0.00016086117162459086,0.0018441870400148319,0.00019807085057294823,-0.020231019844471732,0.039949860120977121,9.6876146824462239
1786615460.029845,1786615460.0294325,vesc,-0.0008824734071944954,-0.0008824734071944954,nan,nan,0.01,1,0,1,0,0,1786615460.0294325,nan,-0.0012135582961138242,0.00078182295285780096,-0.0008824734071944954,-0.11856775186551349,0.040467959995044822,9.4948471768996114
1786615460.0498588,1786615460.0494499,vesc,0.00017880981106699161,0.00017880981106699161,nan,nan,0.01,1,0,1,0,0,1786615460.0494499,nan,-0.0022912438819172173,0.003974775209024368,0.00017880981106699161,-0.095068649962892771,0.054734289714946982,9.5334844101406588
1786615460.0698013,1786615460.0694246,vesc,0.0012853823723193377,0.0012853823723193377,nan,nan,0.01,1,0,1,0,0,1786615460.0694246,nan,0.0019570270479366309,0.00077599624767595173,0.0012853823723193377,-0.057874546151700734,0.04010554224438323,9.6296898228289365
1786615460.0898607,1786615460.0894423,vesc,-0.00088819985372397866,-0.00088819985372397866,nan,nan,0.01,1,0,1,0,0,1786615460.0894423,nan,-0.0012135582961138242,-0.001348698637124484,-0.00088819985372397866,-0.081486024234949106,0.021023445507118765,9.6006186348045048
1786615460.1103437,1786615460.1095665,vesc,-0.00087856930146170981,-0.00087856930146170981,nan,nan,0.01,1,0,1,0,0,1786615460.1095665,nan,-0.00014836720104183631,-0.002413992201480602,-0.00087856930146170981,-0.043336878205094465,0.035353692605855969,9.6154764104129526
1786615460.1300914,1786615460.1293814,vesc,0.0012825190840360147,0.0012825190840360147,nan,nan,0.01,1,0,1,0,0,1786615460.1293814,nan,0.0019570270479366309,-0.00028926402716654019,0.0012825190840360147,-0.10425480887133798,0.04045465757886646,9.4998056159849966
1786615460.1497383,1786615460.1493247,vesc,-0.00086425325015658267,-0.00086425325015658267,nan,nan,0.01,1,0,1,0,0,1786615460.1493247,nan,-0.00014836720104183631,0.002912310213029159,-0.00086425325015658267,-0.020455735660627639,0.030318326086252512,9.7067479423226359
1786615460.1704869,1786615460.1695883,vesc,-0.0019783745987351099,-0.0019783745987351099,nan,nan,0.01,1,0,1,0,0,1786615460.1695883,nan,-0.0033314465156750457,-0.0013457681196280958,-0.0019783745987351099,-0.07196278246599519,0.030590331261020509,9.6055466683671966
1786615460.1899292,1786615460.1894841,vesc,0.0012853823723193377,0.0012853823723193377,nan,nan,0.01,1,0,1,0,0,1786615460.1894841,nan,0.0019570270479366309,0.00077599624767595173,0.0012853823723193377,-0.081036592602637292,0.040286513576567984,9.5623532844948613
1786615460.2099626,1786615460.2095401,vesc,0.0012450379525107266,0.0012450379525107266,nan,nan,0.01,1,0,1,0,0,1786615460.2095401,nan,-0.0012385462372793334,-0.00028916311832836143,0.0012450379525107266,-0.062832793375314111,-0.0078331131485889216,9.6438739991654074
1786615460.2297552,1786615460.2292111,vesc,-0.00087284285493222644,-0.00087284285493222644,nan,nan,0.01,1,0,1,0,0,1786615460.2292111,nan,-0.00014836720104183631,-0.00028347165179561784,-0.00087284285493222644,-0.038266273073403134,0.049787983602559649,9.5916221084168001
1786615460.249598,1786615460.249315,vesc,0.0023159517230344827,0.0023159517230344827,nan,nan,0.01,1,0,1,0,0,1786615460.249315,nan,-0.0012510396877134374,0.0018384945331847875,0.0023159517230344827,-0.024739835435773294,0.063964485468158472,9.6636750110978937
1786615460.2698791,1786615460.2693007,vesc,0.0012325442420022975,0.0012325442420022975,nan,nan,0.01,1,0,1,0,0,1786615460.2693007,nan,-0.0023037368122026708,-0.00028912982881473543,0.0012325442420022975,-0.09546189350489076,0.025904043530800891,9.5669351628761206
1786615460.2899041,1786615460.2894282,vesc,0.00017698743776100315,0.00017698743776100315,nan,nan,0.01,1,0,1,0,0,1786615460.2894282,nan,-0.0012260522666965789,-0.001351561535296319,0.00017698743776100315,-0.081317487372832176,0.054592238913613755,9.5863397335704121
1786615460.3100312,1786615460.3096545,vesc,-0.0019476606011516052,-0.0019476606011516052,nan,nan,0.01,1,0,1,0,0,1786615460.3096545,nan,-0.0012010648456797202,0.00078468585102963622,-0.0019476606011516052,-0.034712508837039024,0.015974447665442426,9.6969620417880833
1786615460.329488,1786615460.3290966,vesc,0.00020197492379644315,0.00020197492379644315,nan,nan,0.01,1,0,1,0,0,1786615460.3290966,nan,0.00090432992344739716,-0.0013516281143235711,0.00020197492379644315,-0.080643330788089607,0.069116796305813466,9.5289025317593996
1786615460.3501298,1786615460.3492928,vesc,0.00017412421449626149,0.00017412421449626149,nan,nan,0.01,1,0,1,0,0,1786615460.3492928,nan,-0.0012260522666965789,-0.0024168218101388111,0.00017412421449626149,-0.038771883659753925,0.0065618918662693204,9.6346131786189062
1786615460.3698592,1786615460.3693674,vesc,-0.00084785543391536762,-0.00084785543391536762,nan,nan,0.01,1,0,1,0,0,1786615460.3693674,nan,0.0019820149891021394,-0.00028353823082286983,-0.00084785543391536762,-0.06215864592684639,0.059381656914315073,9.5865771305360568
1786615460.3897741,1786615460.389339,vesc,0.00019807085057294823,0.00019807085057294823,nan,nan,0.01,1,0,1,0,0,1786615460.389339,nan,-0.00016086117162459086,0.0018441870400148319,0.00019807085057294823,-0.06215864592684639,0.049801614924632531,9.5865514027860854
1786615460.4095368,1786615460.4092743,vesc,0.00095586618671105231,0.00095586618671105231,nan,nan,0.01,1,0,1,0,0,1786615460.4092743,nan,0.00089183595286464255,-0.0002892307376529142,0.00095586618671105231,-0.057481293473427897,0.0066654972230431042,9.9375083179178318
1786615460.4299192,1786615460.4292462,vesc,0.00019520762730820652,0.00019520762730820652,nan,nan,0.01,1,0,1,0,0,1786615460.4292462,nan,-0.00016086117162459086,0.00077892676517233987,0.00019520762730820652,-0.034712508837039024,0.049504612901881018,9.697052088912983
1786615460.4496422,1786615460.4492598,vesc,0.00020770137032592652,0.00020770137032592652,nan,nan,0.01,1,0,1,0,0,1786615460.4492598,nan,0.00090432992344739716,0.00077889243536141293,0.00020770137032592652,-0.024964551251929201,0.020802786196995271,9.6827182238494061
1786615460.4696889,1786615460.4692216,vesc,-0.00087284285493222644,-0.00087284285493222644,nan,nan,0.01,1,0,1,0,0,1786615460.4692216,nan,-0.00014836720104183631,-0.00028347165179561784,-0.00087284285493222644,-0.071400992925605422,0.049879163625540457,9.5577012395227712
1786615460.4896839,1786615460.4892452,vesc,-0.0019380303089636616,-0.0019380303089636616,nan,nan,0.01,1,0,1,0,0,1786615460.4892452,nan,-0.00013587375060773214,-0.00028060875362378264,-0.0019380303089636616,-0.05742511451938892,0.044998565601858331,9.5913847114511555
1786615460.5098097,1786615460.5091393,vesc,0.0012479011107568872,0.0012479011107568872,nan,nan,0.01,1,0,1,0,0,1786615460.5091393,nan,-0.0012385462372793334,0.00077609715651413066,0.0012479011107568872,-0.10036396177446516,0.021088422693836151,9.5764462442632521
1786615460.5296466,1786615460.5292335,vesc,0.0012603948212653164,0.0012603948212653164,nan,nan,0.01,1,0,1,0,0,1786615460.5292335,nan,-0.00017335514220734541,0.00077606386700050461,0.0012603948212653164,-0.015441309482975285,0.063899800642236215,9.6877363045369975
1786615460.5493529,1786615460.5490265,vesc,0.00016449369474328318,0.00016449369474328318,nan,nan,0.01,1,0,1,0,0,1786615460.5490265,nan,-0.0022912428416199163,-0.0013515272054853921,0.00016449369474328318,-0.10943776277483241,0.035574644276774592,9.5332645548227219
1786615460.5694599,1786615460.5689456,vesc,0.00016735691800802484,0.00016735691800802484,nan,nan,0.01,1,0,1,0,0,1786615460.5689456,nan,-0.0022912428416199163,-0.00028626693064290023,0.00016735691800802484,-0.058267798829973572,0.025645377317310647,9.6631791671893552
1786615460.5895541,1786615460.5890772,vesc,0.00020483814706118484,0.00020483814706118484,nan,nan,0.01,1,0,1,0,0,1786615460.5890772,nan,0.00090432992344739716,-0.00028636783948107899,0.00020483814706118484,-0.048014230658512957,0.030589563813933296,9.6058273347305203
1786615460.609597,1786615460.6090999,vesc,0.00017022014127276652,0.00017022014127276652,nan,nan,0.01,1,0,1,0,0,1786615460.6090999,nan,-0.0022912438819172173,0.00077899334419959175,0.00017022014127276652,-0.06215864592684639,0.054591617646924107,9.5865642666610711
1786615460.6293645,1786615460.6290059,vesc,0.00016735691800802484,0.00016735691800802484,nan,nan,0.01,1,0,1,0,0,1786615460.6290059,nan,-0.0022912428416199163,-0.00028626693064290023,0.00016735691800802484,-0.053084835790204288,0.0065752308275470739,9.6296559089767015
1786615460.6499078,1786615460.6491458,vesc,-0.001950524019472091,-0.001950524019472091,nan,nan,0.01,1,0,1,0,0,1786615460.6491458,nan,-0.0012010648456797202,-0.00028057442381285586,-0.001950524019472091,-0.085938660872211692,-0.012429280663710074,9.5717345576889556
1786615460.6692464,1786615460.668963,vesc,-0.00088533669547781837,-0.00088533669547781837,nan,nan,0.01,1,0,1,0,0,1786615460.668963,nan,-0.0012135582961138242,-0.00028343732198469102,-0.00088533669547781837,-0.033982182434532326,0.049671952911992889,9.6347862562096225
1786615460.6892681,1786615460.6889138,vesc,0.00019520762730820652,0.00019520762730820652,nan,nan,0.01,1,0,1,0,0,1786615460.6889138,nan,-0.00016086117162459086,0.00077892676517233987,0.00019520762730820652,-0.067285430012576697,0.040144462775234757,9.6152086079246146
1786615460.7095613,1786615460.7091308,vesc,-0.0030157110833920384,-0.0030157110833920384,nan,nan,0.01,1,0,1,0,0,1786615460.7091308,nan,-0.0011885708750969657,-0.00027771152564102071,-0.0030157110833920384,-0.075909799380632137,0.045153663003674183,9.5336832154813465
1786615460.7293081,1786615460.7289498,vesc,-0.00086425325015658267,-0.00086425325015658267,nan,nan,0.01,1,0,1,0,0,1786615460.7289498,nan,-0.00014836720104183631,0.002912310213029159,-0.00086425325015658267,-0.020511914614666615,0.0015652996971198263,9.7114607983401129
1786615460.7464159,1786615460.7460229,vesc,-0.00087284285493222644,-0.00087284285493222644,nan,nan,0.01,1,0,1,0,0,1786615460.7460229,nan,-0.00014836720104183631,-0.00028347165179561784,-0.00087284285493222644,-0.095012461872578946,0.069117234847006159,9.5287341319414054
1786615460.7694237,1786615460.7690542,vesc,0.0023044988299755161,0.0023044988299755161,nan,nan,0.01,1,0,1,0,0,1786615460.7690542,nan,-0.0012510396877134374,-0.0024225476064824816,0.0023044988299755161,-0.048182767520629888,0.0066008489422202388,9.6201319637145843
1786615460.7895131,1786615460.7891223,vesc,-0.00084212898738588436,-0.00084212898738588436,nan,nan,0.01,1,0,1,0,0,1786615460.7891223,nan,0.0019820149891021394,0.0018469823188621143,-0.00084212898738588436,-0.086388092504523506,0.044947987184301041,9.6102068994415504
1786615460.8096609,1786615460.8089919,vesc,0.00016735691800802484,0.00016735691800802484,nan,nan,0.01,1,0,1,0,0,1786615460.8089919,nan,-0.0022912428416199163,-0.00028626693064290023,0.00016735691800802484,-0.048238946474668865,0.054488195015647278,9.625050641731832
1786615460.8295181,1786615460.829108,vesc,0.0012421747942645664,0.0012421747942645664,nan,nan,0.01,1,0,1,0,0,1786615460.829108,nan,-0.0012385462372793334,-0.0013544244334681541,0.0012421747942645664,-0.10414245096326002,0.030900343339155256,9.4902009791434239
1786615460.850018,1786615460.8494031,vesc,0.00015486317499030486,0.00015486317499030486,nan,nan,0.01,1,0,1,0,0,1786615460.8494031,nan,-0.0033564344568405551,-0.00028623364112927423,0.00015486317499030486,-0.11845539395743554,0.059653808269480635,9.4853197233079527
1786615460.8696353,1786615460.8689208,vesc,0.00021056459359066821,0.00021056459359066821,nan,nan,0.01,1,0,1,0,0,1786615460.8689208,nan,0.00090432992344739716,0.001844153750501206,0.00021056459359066821,-0.029304829981113834,0.0065358717555028534,9.6443055236990176
1786615460.8861094,1786615460.8854775,vesc,0.0023188148812806433,0.0023188148812806433,nan,nan,0.01,1,0,1,0,0,1786615460.8854775,nan,-0.0012510396877134374,0.0029037548080272793,0.0023188148812806433,-0.081317487372832176,0.049802199646222789,9.5863268696954265
1786615460.9092801,1786615460.9089148,vesc,0.0012325442420022975,0.0012325442420022975,nan,nan,0.01,1,0,1,0,0,1786615460.9089148,nan,-0.0023037368122026708,-0.00028912982881473543,0.0012325442420022975,-0.057481293473427897,0.040195662459481696,9.5961618868435608
1786615460.9293945,1786615460.9290137,vesc,0.0012450379525107266,0.0012450379525107266,nan,nan,0.01,1,0,1,0,0,1786615460.9290137,nan,-0.0012385462372793334,-0.00028916311832836143,0.0012450379525107266,-0.090896898959550221,-0.0076777599310773326,9.586060236650269
1786615460.9505672,1786615460.9500396,vesc,0.00019520762730820652,0.00019520762730820652,nan,nan,0.01,1,0,1,0,0,1786615460.9500396,nan,-0.00016086117162459086,0.00077892676517233987,0.00019520762730820652,-0.010763957029556792,0.044713842732502229,9.697319891401321
1786615460.9691505,1786615460.9688144,vesc,0.00018661795751398149,0.00018661795751398149,nan,nan,0.01,1,0,1,0,0,1786615460.9688144,nan,-0.00016086117162459086,-0.0024168550996524372,0.00018661795751398149,-0.090840729141786092,0.030655271902638503,9.5813731083827633
1786615460.9892037,1786615460.988837,vesc,0.00016163047147854149,0.00016163047147854149,nan,nan,0.01,1,0,1,0,0,1786615460.988837,nan,-0.0022912428416199163,-0.0024167885206251853,0.00016163047147854149,-0.057818367197661757,0.011378280150321274,9.6248226003116315
1786615461.0091534,1786615461.008754,vesc,0.00016735691800802484,0.00016735691800802484,nan,nan,0.01,1,0,1,0,0,1786615461.008754,nan,-0.0022912428416199163,-0.00028626693064290023,0.00016735691800802484,-0.063394592051978726,0.030358306424986381,9.6918737945096609
1786615461.0293801,1786615461.0289302,vesc,-0.0019351668906431761,-0.0019351668906431761,nan,nan,0.01,1,0,1,0,0,1786615461.0289302,nan,-0.00013587375060773214,0.00078465256151601006,-0.0019351668906431761,-0.075797441472554183,0.026019306774280437,9.5240528508898024
1786615461.0495522,1786615461.048964,vesc,0.00020770137032592652,0.00020770137032592652,nan,nan,0.01,1,0,1,0,0,1786615461.048964,nan,0.00090432992344739716,0.00077889243536141293,0.00020770137032592652,-0.028911577302840996,0.092846369877744195,9.6110091374633839
1786615461.069288,1786615461.0688648,vesc,-0.00087570614321554941,-0.00087570614321554941,nan,nan,0.01,1,0,1,0,0,1786615461.0688648,nan,-0.00014836720104183631,-0.0013487319266381099,-0.00087570614321554941,-0.090616013325630185,0.011546679968315487,9.5621638346996178
1786615461.0891924,1786615461.0887771,vesc,0.00019520762730820652,0.00019520762730820652,nan,nan,0.01,1,0,1,0,0,1786615461.0887771,nan,-0.00016086117162459086,0.00077892676517233987,0.00019520762730820652,-0.058043083013817665,0.05443699533140034,9.6440973628128859
1786615461.1093056,1786615461.1088822,vesc,0.0012507643990402101,0.0012507643990402101,nan,nan,0.01,1,0,1,0,0,1786615461.1088822,nan,-0.0012385462372793334,0.0018413574313566226,0.0012507643990402101,-0.03916514547430161,0.035211934165317871,9.668218297854196
1786615461.1291707,1786615461.1287766,vesc,-0.00089106301197013917,-0.00089106301197013917,nan,nan,0.01,1,0,1,0,0,1786615461.1287766,nan,-0.0012135582961138242,-0.0024139589119669758,-0.00089106301197013917,-0.099802172234075393,0.054747299770330216,9.5286394070437836
1786615461.1518509,1786615461.1512649,vesc,-0.00089783040598624762,-0.00089783040598624762,nan,nan,0.01,1,0,1,0,0,1786615461.1512649,nan,-0.0022787488710371622,-0.00028340403247106507,-0.00089783040598624762,-0.020174840890432755,0.01601260074920674,9.6827614932470851
1786615461.1691597,1786615461.1687188,vesc,0.00020770137032592652,0.00020770137032592652,nan,nan,0.01,1,0,1,0,0,1786615461.1687188,nan,0.00090432992344739716,0.00077889243536141293,0.00020770137032592652,-0.10938159295706829,0.049957589408833769,9.5285142766234685
1786615461.1891403,1786615461.188736,vesc,-0.00086034914442379708,-0.00086034914442379708,nan,nan,0.01,1,0,1,0,0,1786615461.188736,nan,0.00091682389403015165,-0.00028350494130924384,-0.00086034914442379708,-0.052803941020009404,0.059329872508477877,9.6058483847077696
1786615461.2090378,1786615461.2086957,vesc,0.0012546685047729958,0.0012546685047729958,nan,nan,0.01,1,0,1,0,0,1786615461.2086957,nan,-0.00017335514220734541,-0.0013544577229817802,0.0012546685047729958,-0.091346330591862035,0.0065893372359120406,9.6244168035279927
1786615461.2291977,1786615461.2287006,vesc,-0.00087570614321554941,-0.00087570614321554941,nan,nan,0.01,1,0,1,0,0,1786615461.2287006,nan,-0.00014836720104183631,-0.0013487319266381099,-0.00087570614321554941,-0.019725409258120941,0.03527570536375535,9.6444949734942611
1786615461.2490554,1786615461.248661,vesc,-0.0008824734071944954,-0.0008824734071944954,nan,nan,0.01,1,0,1,0,0,1786615461.248661,nan,-0.0012135582961138242,0.00078182295285780096,-0.0008824734071944954,-0.099970718232467171,0.01638850364154365,9.5429054444028907
1786615461.2695756,1786615461.2690814,vesc,-0.003008943949450255,-0.003008943949450255,nan,nan,0.01,1,0,1,0,0,1786615461.2690814,nan,-0.00012337978002497762,-0.0024082664051369314,-0.003008943949450255,-0.10431097868910211,0.040441793703880791,9.5045956552523876
1786615461.2892301,1786615461.288821,vesc,0.00019807085057294823,0.00019807085057294823,nan,nan,0.01,1,0,1,0,0,1786615461.288821,nan,-0.00016086117162459086,0.0018441870400148319,0.00019807085057294823,-0.029080114164957926,0.025747447779910004,9.6251979915725769
1786615461.3090589,1786615461.3086631,vesc,-0.00087570614321554941,-0.00087570614321554941,nan,nan,0.01,1,0,1,0,0,1786615461.3086631,nan,-0.00014836720104183631,-0.0013487319266381099,-0.00087570614321554941,-0.062720435467236157,0.0017726565910649583,9.6343196483805968
1786615461.3290842,1786615461.3286705,vesc,0.0012546685047729958,0.0012546685047729958,nan,nan,0.01,1,0,1,0,0,1786615461.3286705,nan,-0.00017335514220734541,-0.0013544577229817802,0.0012546685047729958,-0.053028665972440159,0.088018469887384043,9.6250845555840669
1786615461.3491225,1786615461.3487058,vesc,0.0012518052164896727,0.0012518052164896727,nan,nan,0.01,1,0,1,0,0,1786615461.3487058,nan,-0.00017335514220734541,-0.002419717997824272,0.0012518052164896727,-0.085826302964133738,-0.0076135501914471604,9.5621685124723399
1786615461.3691428,1786615461.36868,vesc,0.00015772639825504655,0.00015772639825504655,nan,nan,0.01,1,0,1,0,0,1786615461.36868,nan,-0.0033564354971378557,0.0007790266337132178,0.00015772639825504655,-0.044011034789837034,0.044779258460412308,9.6729779315988935
1786615461.3889441,1786615461.3885412,vesc,0.0012421747942645664,0.0012421747942645664,nan,nan,0.01,1,0,1,0,0,1786615461.3885412,nan,-0.0012385462372793334,-0.0013544244334681541,0.0012421747942645664,-0.10532221813435338,0.040210061228641791,9.5908105148495224
1786615461.4091442,1786615461.4087105,vesc,0.00020483814706118484,0.00020483814706118484,nan,nan,0.01,1,0,1,0,0,1786615461.4087105,nan,0.00090432992344739716,-0.00028636783948107899,0.00020483814706118484,-0.090503655417552231,0.045102609499824808,9.5526738032897356
1786615461.4291694,1786615461.4286206,vesc,0.0012479011107568872,0.0012479011107568872,nan,nan,0.01,1,0,1,0,0,1786615461.4286206,nan,-0.0012385462372793334,0.00077609715651413066,0.0012479011107568872,-0.04896928201345041,0.02558069249138839,9.6872392911852785
1786615461.4453781,1786615461.4441242,vesc,0.00018271388429048652,0.00018271388429048652,nan,nan,0.01,1,0,1,0,0,1786615461.4441242,nan,-0.0012260522666965789,0.00077896005468596581,0.00018271388429048652,-0.08075568869616756,0.05472098729876862,9.538442849226044
1786615461.4694932,1786615461.4689374,vesc,0.002313088564788322,0.002313088564788322,nan,nan,0.01,1,0,1,0,0,1786615461.4689374,nan,-0.0012510396877134374,0.00077323425834229539,0.002313088564788322,-0.094956292054814817,0.069130098721991828,9.5239440926740144
1786615461.489558,1786615461.4885094,vesc,0.003387906050933376,0.003387906050933376,nan,nan,0.01,1,0,1,0,0,1786615461.4885094,nan,-0.00019834256322420413,-0.00029492324448295856,0.003387906050933376,-0.090896898959550221,0.021062366037970293,9.586137419900183
1786615461.5091131,1786615461.5086379,vesc,0.0012882456606026608,0.0012882456606026608,nan,nan,0.01,1,0,1,0,0,1786615461.5086379,nan,0.0019570270479366309,0.0018412565225184438,0.0012882456606026608,-0.062383361743002297,0.025799999632834414,9.6056460710375404
1786615461.5320909,1786615461.5309594,vesc,-0.001940893467209822,-0.001940893467209822,nan,nan,0.01,1,0,1,0,0,1786615461.5309594,nan,-0.00013587375060773214,-0.0013458690284662747,-0.001940893467209822,-0.029641903705347694,0.04956882264151119,9.6731591952918734
1786615461.5490561,1786615461.5486474,vesc,0.0012268176654356515,0.0012268176654356515,nan,nan,0.01,1,0,1,0,0,1786615461.5486474,nan,-0.0023037368122026708,-0.0024196514187970202,0.0012268176654356515,-0.10431097868910211,0.050021835693563332,9.5046213830023589
1786615461.5689478,1786615461.5685239,vesc,-0.00087284285493222644,-0.00087284285493222644,nan,nan,0.01,1,0,1,0,0,1786615461.5685239,nan,-0.00014836720104183631,-0.00028347165179561784,-0.00087284285493222644,-0.039108966520262634,0.011274711338646881,9.6633651086550572
1786615461.5892432,1786615461.5888968,vesc,-0.00089496711770292476,-0.00089496711770292476,nan,nan,0.01,1,0,1,0,0,1786615461.5888968,nan,-0.0022787499113344628,0.00078185624237142701,-0.00089496711770292476,-0.095798967229124621,0.040196868447761602,9.5957116512190623
1786615461.6089437,1786615461.6085033,vesc,-0.00087284285493222644,-0.00087284285493222644,nan,nan,0.01,1,0,1,0,0,1786615461.6085033,nan,-0.00014836720104183631,-0.00028347165179561784,-0.00087284285493222644,-0.062776614421275134,0.040079960674809456,9.6392125986478732
1786615461.629065,1786615461.6284535,vesc,0.0012853823723193377,0.0012853823723193377,nan,nan,0.01,1,0,1,0,0,1786615461.6284535,nan,0.0019570270479366309,0.00077599624767595173,0.0012853823723193377,-0.090278939601396324,0.035574059555184334,9.5334890879133809
1786615461.6491325,1786615461.648567,vesc,-0.00088533669547781837,-0.00088533669547781837,nan,nan,0.01,1,0,1,0,0,1786615461.648567,nan,-0.0012135582961138242,-0.00028343732198469102,-0.00088533669547781837,-0.01093250302794857,0.044675214562445831,9.7116888397603134
1786615461.6686389,1786615461.6682937,vesc,0.00017022014127276652,0.00017022014127276652,nan,nan,0.01,1,0,1,0,0,1786615461.6682937,nan,-0.0022912438819172173,0.00077899334419959175,0.00017022014127276652,-0.0059180722821587928,0.039936521159699367,9.6925731215316091
1786615461.6889765,1786615461.6885397,vesc,-0.00086711640840274296,-0.00086711640840274296,nan,nan,0.01,1,0,1,0,0,1786615461.6885397,nan,-0.00014836720104183631,0.0018470499381866669,-0.00086711640840274296,-0.086219546506131728,0.021036455562501999,9.5957724622644491
1786615461.708951,1786615461.708462,vesc,0.0012546685047729958,0.0012546685047729958,nan,nan,0.01,1,0,1,0,0,1786615461.708462,nan,-0.00017335514220734541,-0.0013544577229817802,0.0012546685047729958,-0.06706071419642079,0.040195954820276825,9.5960496202982313
1786615461.7294996,1786615461.7290931,vesc,-0.00086607559095328035,-0.00086607559095328035,nan,nan,0.01,1,0,1,0,0,1786615461.7290931,nan,0.00091682389403015165,-0.0024140254909942277,-0.00086607559095328035,-0.02445894066557841,-0.0030314525395915837,9.63954588995432
1786615461.7490714,1786615461.7486436,vesc,0.00016058962151978823,0.00016058962151978823,nan,nan,0.01,1,0,1,0,0,1786615461.7486436,nan,-0.0033564354971378557,0.0018442879488530107,0.00016058962151978823,-0.081148950510715245,0.088160995775009354,9.5720608323363194
1786615461.768791,1786615461.7683852,vesc,0.00019234440404346486,0.00019234440404346486,nan,nan,0.01,1,0,1,0,0,1786615461.7683852,nan,-0.00016086117162459086,-0.00028633454996745305,0.00019234440404346486,-0.090728371233708138,-0.0028490924936299677,9.5717041521662622
1786615461.7890515,1786615461.7886009,vesc,0.00019520762730820652,0.00019520762730820652,nan,nan,0.01,1,0,1,0,0,1786615461.7886009,nan,-0.00016086117162459086,0.00077892676517233987,0.00019520762730820652,-0.03899660861218468,0.030460523067983303,9.6538364856202179
1786615461.8087645,1786615461.8083897,vesc,0.00018271388429048652,0.00018271388429048652,nan,nan,0.01,1,0,1,0,0,1786615461.8083897,nan,-0.0012260522666965789,0.00077896005468596581,0.00018271388429048652,-0.063169867099547972,0.020829756480345907,9.6726890791333062
1786615461.8287265,1786615461.8283577,vesc,0.0012757519500942313,0.0012757519500942313,nan,nan,0.01,1,0,1,0,0,1786615461.8283577,nan,0.00089183595286464255,0.0018412908523293707,0.0012757519500942313,-0.085264513423743971,0.054785489399193921,9.5144388585027855
1786615461.8488209,1786615461.8483717,vesc,0.00020483814706118484,0.00020483814706118484,nan,nan,0.01,1,0,1,0,0,1786615461.8483717,nan,0.00090432992344739716,-0.00028636783948107899,0.00020483814706118484,-0.044179571651953964,-0.0031595796580567992,9.6872182412080292
1786615461.8686879,1786615461.8682675,vesc,-0.0019351668906431761,-0.0019351668906431761,nan,nan,0.01,1,0,1,0,0,1786615461.8682675,nan,-0.00013587375060773214,0.00078465256151601006,-0.0019351668906431761,-0.028743031304449218,0.030614706842314376,9.5964729587295778
1786615461.8888984,1786615461.8883822,vesc,-0.00086425325015658267,-0.00086425325015658267,nan,nan,0.01,1,0,1,0,0,1786615461.8883822,nan,-0.00014836720104183631,0.002912310213029159,-0.00086425325015658267,-0.047958051704473981,0.049762511668284048,9.6010899204062525
1786615461.9088967,1786615461.9082911,vesc,0.00017022014127276652,0.00017022014127276652,nan,nan,0.01,1,0,1,0,0,1786615461.9082911,nan,-0.0022912438819172173,0.00077899334419959175,0.00017022014127276652,-0.077145745505764474,0.035290396493710574,9.6390313349548933
1786615461.9287741,1786615461.9283621,vesc,0.00018948118077872315,0.00018948118077872315,nan,nan,0.01,1,0,1,0,0,1786615461.9283621,nan,-0.00016086117162459086,-0.001351594824809945,0.00018948118077872315,-0.1089883311425206,0.02130758365488461,9.4949091573881788
1786615461.9487014,1786615461.9483068,vesc,0.00018844033081996989,0.00018844033081996989,nan,nan,0.01,1,0,1,0,0,1786615461.9483068,nan,-0.0012260522666965789,0.0029094806043709499,0.00018844033081996989,-0.029698082659386671,0.020815832797477896,9.6778720513093504
1786615461.9685323,1786615461.9681971,vesc,-0.00089496711770292476,-0.00089496711770292476,nan,nan,0.01,1,0,1,0,0,1786615461.9681971,nan,-0.0022787499113344628,0.00078185624237142701,-0.00089496711770292476,-0.10915687714091238,0.030848997474510753,9.5093038334971425
1786615461.9885101,1786615461.9881849,vesc,-0.00091605056302416035,-0.00091605056302416035,nan,nan,0.01,1,0,1,0,0,1786615461.9881849,nan,-0.0033439404862578002,-0.0024138923329397239,-0.00091605056302416035,-0.05759365138150585,0.025799853452436849,9.6057022043102052
1786615462.0085747,1786615462.0082481,vesc,0.00021342781685540992,0.00021342781685540992,nan,nan,0.01,1,0,1,0,0,1786615462.0082481,nan,0.00090432992344739716,0.002909414025343698,0.00021342781685540992,-0.061821572202612529,0.054668873987036903,9.5578263699430863
1786615462.028688,1786615462.0282876,vesc,-0.00086034914442379708,-0.00086034914442379708,nan,nan,0.01,1,0,1,0,0,1786615462.0282876,nan,0.00091682389403015165,-0.00028350494130924384,-0.00086034914442379708,-0.03798537830320825,0.035482294810613269,9.5676356593412493
1786615462.0487206,1786615462.0483582,vesc,0.0012603948212653164,0.0012603948212653164,nan,nan,0.01,1,0,1,0,0,1786615462.0483582,nan,-0.00017335514220734541,0.00077606386700050461,0.0012603948212653164,-0.1049289563198057,-0.012390067772063418,9.5571410762393043
1786615462.0686388,1786615462.0682075,vesc,0.0012450379525107266,0.0012450379525107266,nan,nan,0.01,1,0,1,0,0,1786615462.0682075,nan,-0.0012385462372793334,-0.00028916311832836143,0.0012450379525107266,-0.12341365031732376,0.021295158321091634,9.499529627394395
1786615462.0884473,1786615462.0880783,vesc,-0.0030128481852202027,-0.0030128481852202027,nan,nan,0.01,1,0,1,0,0,1786615462.0880783,nan,-0.0011885708750969657,0.00078754874920147137,-0.0030128481852202027,-0.063169867099547972,0.025619759202637482,9.6727019430082919
1786615462.110503,1786615462.1097038,vesc,0.0012575316630191562,0.0012575316630191562,nan,nan,0.01,1,0,1,0,0,1786615462.1097038,nan,-0.00017335514220734541,-0.0002891974481392882,0.0012575316630191562,-0.081542203188988083,0.04017066561149818,9.6054601295718385
1786615462.1285381,1786615462.1281712,vesc,-0.00088533669547781837,-0.00088533669547781837,nan,nan,0.01,1,0,1,0,0,1786615462.1281712,nan,-0.0012135582961138242,-0.00028343732198469102,-0.00088533669547781837,-0.090278939601396324,0.059524182801940384,9.5335534072883092
1786615462.1485562,1786615462.1481423,vesc,0.00020483814706118484,0.00020483814706118484,nan,nan,0.01,1,0,1,0,0,1786615462.1481423,nan,0.00090432992344739716,-0.00028636783948107899,0.00020483814706118484,-0.05725657765727199,-0.0076530919889883364,9.5768742604673207
1786615462.1683838,1786615462.1680338,vesc,0.0012354074002484579,0.0012354074002484579,nan,nan,0.01,1,0,1,0,0,1786615462.1680338,nan,-0.0023037378524999718,0.0007761304460277566,0.0012354074002484579,-0.05269158311193145,0.078515684237814298,9.5963209311161108
1786615462.1888216,1786615462.1881027,vesc,-0.00091032411649467708,-0.00091032411649467708,nan,nan,0.01,1,0,1,0,0,1786615462.1881027,nan,-0.0033439404862578002,-0.00028337074295743903,-0.00091032411649467708,-0.071794245603878259,0.035418962153368483,9.5911905838831899
1786615462.2086496,1786615462.2080159,vesc,-0.00086997969668606593,-0.00086997969668606593,nan,nan,0.01,1,0,1,0,0,1786615462.2080159,nan,-0.00014836720104183631,0.00078178966334417502,-0.00086997969668606593,-0.090953087049864045,0.044999625409740673,9.5909917785425023
1786615462.228745,1786615462.2282813,vesc,-0.0011870021067673408,-0.0011870021067673408,nan,nan,0.01,1,0,1,0,0,1786615462.2282813,nan,-0.0074438436949211617,-0.012780029453937287,-0.0011870021067673408,-0.10287690330762089,-0.33342948346767898,9.9954320080919388
1786615462.2486763,1786615462.2482486,vesc,0.0012268176654356515,0.0012268176654356515,nan,nan,0.01,1,0,1,0,0,1786615462.2482486,nan,-0.0023037368122026708,-0.0024196514187970202,0.0012268176654356515,-0.1230765765930899,0.030952420105787581,9.4708174584263816
1786615462.2683535,1786615462.2679791,vesc,0.00020197492379644315,0.00020197492379644315,nan,nan,0.01,1,0,1,0,0,1786615462.2679791,nan,0.00090432992344739716,-0.0013516281143235711,0.00020197492379644315,-0.07585362042659316,0.059536571590633969,9.528932937282093
1786615462.2882712,1786615462.287878,vesc,0.0012325442420022975,0.0012325442420022975,nan,nan,0.01,1,0,1,0,0,1786615462.287878,nan,-0.0023037368122026708,-0.00028912982881473543,0.0012325442420022975,-0.062551898605119227,0.02097136874048644,9.6200021555215471
1786615462.3083971,1786615462.3080127,vesc,-0.00088819985372397866,-0.00088819985372397866,nan,nan,0.01,1,0,1,0,0,1786615462.3080127,nan,-0.0012135582961138242,-0.001348698637124484,-0.00088819985372397866,-0.076696313873452659,0.040183383306086284,9.6007262235771123
1786615462.3283715,1786615462.3279922,vesc,-0.00089783040598624762,-0.00089783040598624762,nan,nan,0.01,1,0,1,0,0,1786615462.3279922,nan,-0.0022787488710371622,-0.00028340403247106507,-0.00089783040598624762,-0.053253372652321218,0.044856807161320233,9.6441277683355793
1786615462.3484585,1786615462.3480067,vesc,-0.0019351668906431761,-0.0019351668906431761,nan,nan,0.01,1,0,1,0,0,1786615462.3480067,nan,-0.00013587375060773214,0.00078465256151601006,-0.0019351668906431761,-0.099184212875921496,0.026148786061423124,9.4758753001821105
1786615462.3682644,1786615462.3679268,vesc,-0.0019476606011516052,-0.0019476606011516052,nan,nan,0.01,1,0,1,0,0,1786615462.3679268,nan,-0.0012010648456797202,0.00078468585102963622,-0.0019476606011516052,-0.019893946120237871,0.020867032481724834,9.6588253302282965
1786615462.3881707,1786615462.38785,vesc,-0.0019255363383809071,-0.0019255363383809071,nan,nan,0.01,1,0,1,0,0,1786615462.38785,nan,0.00092931734446425576,-0.00028064204313740869,-0.0019255363383809071,-0.080474793925972676,0.026045217249748731,9.5144178085255362
1786615462.408309,1786615462.4079387,vesc,0.00019520762730820652,0.00019520762730820652,nan,nan,0.01,1,0,1,0,0,1786615462.4079387,nan,-0.00016086117162459086,0.00077892676517233987,0.00019520762730820652,-0.066723640472186929,0.040273211160389621,9.567310554137066
1786615462.4282081,1786615462.4279079,vesc,-0.00086034914442379708,-0.00086034914442379708,nan,nan,0.01,1,0,1,0,0,1786615462.4279079,nan,0.00091682389403015165,-0.00028350494130924384,-0.00086034914442379708,-0.048632199152941702,0.020867909564110221,9.6584885305923081
