ros_time,msg_stamp,selected_mode,selected_wz,vesc_wz,livox_wz,livox_wz_raw,livox_bias_wz,vesc_weight,livox_weight,vesc_valid,livox_valid,fallback_used,vesc_header_stamp,livox_header_stamp,angular_velocity_x,angular_velocity_y,angular_velocity_z,linear_acceleration_x,linear_acceleration_y,linear_acceleration_z
1786619090.4666958,1786619090.465049,vesc,-0.00086997969668606593,-0.00086997969668606593,nan,nan,0.01,1,0,1,0,0,1786619090.465049,nan,-0.00014836720104183631,0.00078178966334417502,-0.00086997969668606593,-0.096810206674375898,0.21240592833190775,9.6823896103156812
1786619090.484549,1786619090.4821966,vesc,-0.00088533669547781837,-0.00088533669547781837,nan,nan,0.01,1,0,1,0,0,1786619090.4821966,nan,-0.0012135582961138242,-0.00028343732198469102,-0.00088533669547781837,-0.12949548575799152,0.21260009244497269,9.6101519356120662
1786619090.5069349,1786619090.5033903,vesc,-0.00087856930146170981,-0.00087856930146170981,nan,nan,0.01,1,0,1,0,0,1786619090.5033903,nan,-0.00014836720104183631,-0.002413992201480602,-0.00087856930146170981,-0.063394601188253574,0.24590926946539327,9.692452668884016
1786619090.5223389,1786619090.52106,vesc,-0.001950524019472091,-0.001950524019472091,nan,nan,0.01,1,0,1,0,0,1786619090.52106,nan,-0.0012010648456797202,-0.00028057442381285586,-0.001950524019472091,-0.16161898443749223,0.23208307065000788,9.4900676626208451
1786619090.5385985,1786619090.5383379,vesc,0.0012479011107568872,0.0012479011107568872,nan,nan,0.01,1,0,1,0,0,1786619090.5383379,nan,-0.0012385462372793334,0.00077609715651413066,0.0012479011107568872,-0.077482828366273182,0.19328386952845911,9.6681937395474051
1786619090.5615213,1786619090.5610716,vesc,0.00020770137032592652,0.00020770137032592652,nan,nan,0.01,1,0,1,0,0,1786619090.5610716,nan,0.00090432992344739716,0.00077889243536141293,0.00020770137032592652,-0.096136059225908177,0.16945021551346251,9.6247980420048407
1786619090.586616,1786619090.5810721,vesc,0.00019234440404346486,0.00019234440404346486,nan,nan,0.01,1,0,1,0,0,1786619090.5810721,nan,-0.00016086117162459086,-0.00028633454996745305,0.00019234440404346486,-0.090616013325630185,0.22709769782637146,9.5627427090739729
1786619090.6020443,1786619090.6010845,vesc,0.00018948118077872315,0.00018948118077872315,nan,nan,0.01,1,0,1,0,0,1786619090.6010845,nan,-0.00016086117162459086,-0.001351594824809945,0.00018948118077872315,-0.096248417133986131,0.20295461645483037,9.6344669982213418
1786619090.6180687,1786619090.6176407,vesc,-0.003008943949450255,-0.003008943949450255,nan,nan,0.01,1,0,1,0,0,1786619090.6176407,nan,-0.00012337978002497762,-0.0024082664051369314,-0.003008943949450255,-0.072412223234581852,0.25082834947873422,9.6444563818693041
1786619090.6586368,1786619090.6577504,vesc,0.00019234440404346486,0.00019234440404346486,nan,nan,0.01,1,0,1,0,0,1786619090.6577504,nan,-0.00016086117162459086,-0.00028633454996745305,0.00019234440404346486,-0.11991606503499863,0.19343969783226278,9.610212746657453
1786619090.6821988,1786619090.6811907,vesc,0.00020770137032592652,0.00020770137032592652,nan,nan,0.01,1,0,1,0,0,1786619090.6811907,nan,0.00090432992344739716,0.00077889243536141293,0.00020770137032592652,-0.10498514441011952,0.2031480313933578,9.5625099898810504
1786619090.7022316,1786619090.7011251,vesc,0.00021733189007890484,0.00021733189007890484,nan,nan,0.01,1,0,1,0,0,1786619090.7011251,nan,0.0019695210185193849,-0.00028640112899470504,0.00021733189007890484,-0.05860488169048228,0.19800891333658299,9.6923801634068241
1786619090.7219546,1786619090.7211101,vesc,0.00022305833660838821,0.00022305833660838821,nan,nan,0.01,1,0,1,0,0,1786619090.7211101,nan,0.0019695210185193849,0.0018441194206902792,0.00022305833660838821,-0.10971868495385184,0.27501137464390979,9.5578567754657797
1786619090.7419484,1786619090.7410946,vesc,-0.0008324984351236154,-0.0008324984351236154,nan,nan,0.01,1,0,1,0,0,1786619090.7410946,nan,0.0030472060841741275,0.0007816887545059962,-0.0008324984351236154,-0.10137520121971644,0.16455735660893467,9.663047020109957
1786619090.768544,1786619090.7660882,vesc,0.0012450379525107266,0.0012450379525107266,nan,nan,0.01,1,0,1,0,0,1786619090.7660882,nan,-0.0012385462372793334,-0.00028916311832836143,0.0012450379525107266,-0.095574269685518409,0.23663925782639517,9.5770812519102719
1786619090.7810826,1786619090.7807655,vesc,-0.0019380303089636616,-0.0019380303089636616,nan,nan,0.01,1,0,1,0,0,1786619090.7807655,nan,-0.00013587375060773214,-0.00028060875362378264,-0.0019380303089636616,-0.081879286049496791,0.2173242226256118,9.6346751591074735
1786619090.806824,1786619090.8063858,vesc,0.0012421747942645664,0.0012421747942645664,nan,nan,0.01,1,0,1,0,0,1786619090.8063858,nan,-0.0012385462372793334,-0.0013544244334681541,0.0012421747942645664,-0.14798017975550959,0.26065539979520125,9.5525790783921138
1786619090.821367,1786619090.8210659,vesc,0.00022305833660838821,0.00022305833660838821,nan,nan,0.01,1,0,1,0,0,1786619090.8210659,nan,0.0019695210185193849,0.0018441194206902792,0.00022305833660838821,-0.058829606642913035,0.21711750527090601,9.7115906065331501
1786619090.8414156,1786619090.8407068,vesc,0.00017698743776100315,0.00017698743776100315,nan,nan,0.01,1,0,1,0,0,1786619090.8407068,nan,-0.0012260522666965789,-0.001351561535296319,0.00017698743776100315,-0.11445220722503446,0.25586431899247764,9.5529591474257813
1786619090.8613019,1786619090.8609858,vesc,0.0012892864780521232,0.0012892864780521232,nan,nan,0.01,1,0,1,0,0,1786619090.8609858,nan,0.0030222189232315942,-0.0024198189066624511,0.0012892864780521232,-0.081879286049496791,0.17900405466688163,9.6345710786644077
1786619090.8817868,1786619090.8806765,vesc,0.00020770137032592652,0.00020770137032592652,nan,nan,0.01,1,0,1,0,0,1786619090.8806765,nan,0.00090432992344739716,0.00077889243536141293,0.00020770137032592652,-0.091795780496723545,0.17892710896011366,9.6631978782802435
1786619090.9009209,1786619090.9006512,vesc,0.00018948118077872315,0.00018948118077872315,nan,nan,0.01,1,0,1,0,0,1786619090.9006512,nan,-0.00016086117162459086,-0.001351594824809945,0.00018948118077872315,-0.13316161703870844,0.24638786408701918,9.5143920807755649
1786619090.9209654,1786619090.9206223,vesc,0.00025194989586732315,0.00025194989586732315,nan,nan,0.01,1,0,1,0,0,1786619090.9206223,nan,0.0051650948238839995,-0.0013517623126753757,0.00025194989586732315,-0.034768696927352849,0.21714250211888952,9.7022923638048724
1786619090.9412715,1786619090.9406159,vesc,-0.00084499214563204465,-0.00084499214563204465,nan,nan,0.01,1,0,1,0,0,1786619090.9406159,nan,0.0019820149891021394,0.00078172204401962214,-0.00084499214563204465,-0.13377957639686233,0.21750612585783102,9.5670006516942294
1786619090.9618864,1786619090.9610302,vesc,0.00021733189007890484,0.00021733189007890484,nan,nan,0.01,1,0,1,0,0,1786619090.9610302,nan,0.0019695210185193849,-0.00028640112899470504,0.00021733189007890484,-0.09591134340975227,0.23656201975883207,9.6058191486282567
1786619090.9809093,1786619090.9806225,vesc,0.001217187243210545,0.001217187243210545,nan,nan,0.01,1,0,1,0,0,1786619090.9806225,nan,-0.0033689284274233092,-0.0013543568141436014,0.001217187243210545,-0.091346348864411731,0.23172034226600147,9.6250214056523191
1786619091.0012362,1786619091.0009677,vesc,-0.00091995466875694593,-0.00091995466875694593,nan,nan,0.01,1,0,1,0,0,1786619091.0009677,nan,-0.004409132101478439,0.00078192386169597978,-0.00091995466875694593,-0.10999957058777188,0.250996895477126,9.5817414829846257
1786619091.0222278,1786619091.0217021,vesc,-0.00087284285493222644,-0.00087284285493222644,nan,nan,0.01,1,0,1,0,0,1786619091.0217021,nan,-0.00014836720104183631,-0.00028347165179561784,-0.00087284285493222644,-0.10638962739736879,0.15971598974944889,9.6821358411455094
1786619091.0431814,1786619091.0411208,vesc,0.0012546685047729958,0.0012546685047729958,nan,nan,0.01,1,0,1,0,0,1786619091.0411208,nan,-0.00017335514220734541,-0.0013544577229817802,0.0012546685047729958,-0.076977217779922391,0.22213984346257654,9.625164077720342
1786619091.0723886,1786619091.0715935,vesc,-0.00087284285493222644,-0.00087284285493222644,nan,nan,0.01,1,0,1,0,0,1786619091.0715935,nan,-0.00014836720104183631,-0.00028347165179561784,-0.00087284285493222644,-0.067060723332695638,0.2557469544057831,9.5966284946725864
1786619091.0806525,1786619091.0803213,vesc,0.00020197492379644315,0.00020197492379644315,nan,nan,0.01,1,0,1,0,0,1786619091.0803213,nan,0.00090432992344739716,-0.0013516281143235711,0.00020197492379644315,-0.067903407643280289,0.21244364287447937,9.6683586310358578
1786619091.105664,1786619091.1046839,vesc,0.002313088564788322,0.002313088564788322,nan,nan,0.01,1,0,1,0,0,1786619091.1046839,nan,-0.0012510396877134374,0.00077323425834229539,0.002313088564788322,-0.10966249686353802,0.2510741518172388,9.5530024168234604
1786619091.129631,1786619091.1220725,vesc,0.00018271388429048652,0.00018271388429048652,nan,nan,0.01,1,0,1,0,0,1786619091.1220725,nan,-0.0012260522666965789,0.00077896005468596581,0.00018271388429048652,-0.06367548682217361,0.16441453836051423,9.716183009903034
1786619091.1419814,1786619091.1414628,vesc,-0.00084499214563204465,-0.00084499214563204465,nan,nan,0.01,1,0,1,0,0,1786619091.1414628,nan,0.0019820149891021394,0.00078172204401962214,-0.00084499214563204465,-0.10013926423085895,0.24627095631406704,9.5578918587611952
1786619091.158433,1786619091.1564841,vesc,-0.00084499214563204465,-0.00084499214563204465,nan,nan,0.01,1,0,1,0,0,1786619091.1564841,nan,0.0019820149891021394,0.00078172204401962214,-0.00084499214563204465,-0.10131903140195231,0.25558063765845418,9.6585013944672937
1786619091.1780307,1786619091.1762543,vesc,-0.00089783040598624762,-0.00089783040598624762,nan,nan,0.01,1,0,1,0,0,1786619091.1762543,nan,-0.0022787488710371622,-0.00028340403247106507,-0.00089783040598624762,-0.11997223485276276,0.20779689694180092,9.6150402081066204
1786619091.2129297,1786619091.1966567,vesc,-0.00088533669547781837,-0.00088533669547781837,nan,nan,0.01,1,0,1,0,0,1786619091.1966567,nan,-0.0012135582961138242,-0.00028343732198469102,-0.00088533669547781837,-0.072243686372464921,0.21254679141751076,9.6299845225104264
1786619091.2343032,1786619091.233865,vesc,0.0012518052164896727,0.0012518052164896727,nan,nan,0.01,1,0,1,0,0,1786619091.233865,nan,-0.00017335514220734541,-0.002419717997824272,0.0012518052164896727,-0.13885019066482851,0.21744189784565116,9.590893545315339
1786619091.2496686,1786619091.2492492,vesc,-0.00085175953964815321,-0.00085175953964815321,nan,nan,0.01,1,0,1,0,0,1786619091.2492492,nan,0.00091682389403015165,0.0029122769235155332,-0.00085175953964815321,-0.10070105377124872,0.2892524151550333,9.6059045179804343
1786619091.2617817,1786619091.2610514,vesc,-0.00086034914442379708,-0.00086034914442379708,nan,nan,0.01,1,0,1,0,0,1786619091.2610514,nan,0.00091682389403015165,-0.00028350494130924384,-0.00086034914442379708,-0.11478928094926832,0.22225691568847594,9.5816081664620469
1786619091.2822037,1786619091.2810361,vesc,0.0012143239549272219,0.0012143239549272219,nan,nan,0.01,1,0,1,0,0,1786619091.2810361,nan,-0.0033689284274233092,-0.002419618129283394,0.0012143239549272219,-0.11952282149300064,0.22226994401640887,9.5767619939219912
1786619091.3017035,1786619091.3010674,vesc,-0.00085748598617763668,-0.00085748598617763668,nan,nan,0.01,1,0,1,0,0,1786619091.3010674,nan,0.00091682389403015165,0.00078175533353324808,-0.00085748598617763668,-0.082160180819691675,0.2268399086952666,9.6586487443080387
1786619091.3253067,1786619091.3236721,vesc,0.00016449369474328318,0.00016449369474328318,nan,nan,0.01,1,0,1,0,0,1786619091.3236721,nan,-0.0022912428416199163,-0.0013515272054853921,0.00016449369474328318,-0.13344250267262847,0.21279334293055285,9.538249891101259
1786619091.3413455,1786619091.3410375,vesc,-0.0018630677858387601,-0.0018630677858387601,nan,nan,0.01,1,0,1,0,0,1786619091.3410375,nan,0.0062552733399728454,-0.00028080953100283944,-0.0018630677858387601,-0.044516654512462672,0.1931540613354219,9.7164847262436069
1786619091.3609903,1786619091.3607221,vesc,0.00023945615284960315,0.00023945615284960315,nan,nan,0.01,1,0,1,0,0,1786619091.3607221,nan,0.004099903468737686,-0.0013517290231617497,0.00023945615284960315,-0.11422749140887856,0.23196570606331335,9.5337370098676502
1786619091.3819091,1786619091.3815539,vesc,0.00016449369474328318,0.00016449369474328318,nan,nan,0.01,1,0,1,0,0,1786619091.3815539,nan,-0.0022912428416199163,-0.0013515272054853921,0.00016449369474328318,-0.10036398004701486,0.241429425001634,9.5770379825125929
1786619091.4099398,1786619091.4079721,vesc,0.00018661795751398149,0.00018661795751398149,nan,nan,0.01,1,0,1,0,0,1786619091.4079721,nan,-0.00016086117162459086,-0.0024168550996524372,0.00018661795751398149,-0.072861654866893666,0.22677524214189404,9.6827100377471425
1786619091.4221687,1786619091.4213917,vesc,-0.0019630177299805205,-0.0019630177299805205,nan,nan,0.01,1,0,1,0,0,1786619091.4213917,nan,-0.0022662549004544073,-0.00028054113429922987,-0.0019630177299805205,-0.095686627593596363,0.25098359306094764,9.5866987526268304
1786619091.441087,1786619091.4407053,vesc,-0.0008535818804448511,-0.0008535818804448511,nan,nan,0.01,1,0,1,0,0,1786619091.4407053,nan,0.0019820149891021394,-0.0024140598208051544,-0.0008535818804448511,-0.1337234065790982,0.16961879805695368,9.5620819736769818
1786619091.4609914,1786619091.4606743,vesc,0.0012757519500942313,0.0012757519500942313,nan,nan,0.01,1,0,1,0,0,1786619091.4606743,nan,0.00089183595286464255,0.0018412908523293707,0.0012757519500942313,-0.081766928141418838,0.21255994765329156,9.6250822166977059
1786619091.4813831,1786619091.4808705,vesc,0.00021446866681416318,0.00021446866681416318,nan,nan,0.01,1,0,1,0,0,1786619091.4808705,nan,0.0019695210185193849,-0.0013516614038371971,0.00021446866681416318,-0.090559843507866056,0.22232054070651586,9.5579398059315963
1786619091.5011771,1786619091.5007634,vesc,-0.00090069356423240813,-0.00090069356423240813,nan,nan,0.01,1,0,1,0,0,1786619091.5007634,nan,-0.0022787488710371622,-0.001348664307313557,-0.00090069356423240813,-0.096978752672767676,0.22194734215153389,9.6967854558678255
1786619091.5209794,1786619091.5206442,vesc,-0.0008824734071944954,-0.0008824734071944954,nan,nan,0.01,1,0,1,0,0,1786619091.5206442,nan,-0.0012135582961138242,0.00078182295285780096,-0.0008824734071944954,-0.16184370025364814,0.25598168357917217,9.5092909696221568
1786619091.5418606,1786619091.5407557,vesc,-0.00085071859216152813,-0.00085071859216152813,nan,nan,0.01,1,0,1,0,0,1786619091.5407557,nan,0.0019820149891021394,-0.0013487985056653618,-0.00085071859216152813,-0.11512635467350218,0.15990938641542662,9.610178832805218
1786619091.561198,1786619091.5607052,vesc,-0.00085071859216152813,-0.00085071859216152813,nan,nan,0.01,1,0,1,0,0,1786619091.5607052,nan,0.0019820149891021394,-0.0013487985056653618,-0.00085071859216152813,-0.091458706772489684,0.24127463823316297,9.6346272119370724
1786619091.581279,1786619091.5809696,vesc,0.0012700253735275855,0.0012700253735275855,nan,nan,0.01,1,0,1,0,0,1786619091.5809696,nan,0.00089183595286464255,-0.0002892307376529142,0.0012700253735275855,-0.081879286049496791,0.26043442985173293,9.6347909339823445
1786619091.6013532,1786619091.6010203,vesc,-0.00087570614321554941,-0.00087570614321554941,nan,nan,0.01,1,0,1,0,0,1786619091.6010203,nan,-0.00014836720104183631,-0.0013487319266381099,-0.00087570614321554941,-0.12876515021920998,0.20797742973279298,9.5478720695905395
1786619091.6214604,1786619091.6211615,vesc,0.0012450379525107266,0.0012450379525107266,nan,nan,0.01,1,0,1,0,0,1786619091.6211615,nan,-0.0012385462372793334,-0.00028916311832836143,0.0012450379525107266,-0.044123401834189835,0.22677432851440926,9.6830468373831309
1786619091.6417499,1786619091.6411033,vesc,0.0012978762128649296,0.0012978762128649296,nan,nan,0.01,1,0,1,0,0,1786619091.6411033,nan,0.0030222186631572692,0.00077596295816232579,0.0012978762128649296,-0.1334986907629423,0.227150542040091,9.543078521993607
1786619091.6614757,1786619091.6611114,vesc,0.0012354074002484579,0.0012354074002484579,nan,nan,0.01,1,0,1,0,0,1786619091.6611114,nan,-0.0023037378524999718,0.0007761304460277566,0.0012354074002484579,-0.087230785951383005,0.22677568068308673,9.6825416379291482
1786619091.6815658,1786619091.681186,vesc,0.00011738194593714486,0.00011738194593714486,nan,nan,0.01,1,0,1,0,0,1786619091.681186,nan,-0.0065520072219078674,-0.00028613273229109547,0.00011738194593714486,-0.089043002612538835,0.24661824439358071,9.4286830053540029
1786619091.7014565,1786619091.7010643,vesc,-0.00087961024894833511,-0.00087961024894833511,nan,nan,0.01,1,0,1,0,0,1786619091.7010643,nan,-0.0012135582961138242,0.0018470832277002929,-0.00087961024894833511,-0.12278120082726129,0.082612645695252951,9.8541901690788336
1786619091.7214136,1786619091.7211044,vesc,0.0002058789970199381,0.0002058789970199381,nan,nan,0.01,1,0,1,0,0,1786619091.7211044,nan,0.0019695210185193849,-0.0045474432686619737,0.0002058789970199381,-0.048463671427099619,0.15981716485711317,9.6444926346079001
1786619091.7413743,1786619091.7410896,vesc,-0.00081714143633186296,-0.00081714143633186296,nan,nan,0.01,1,0,1,0,0,1786619091.7410896,nan,0.0041123971792461156,0.0018469157398348622,-0.00081714143633186296,-0.11332862814425493,0.29444196544896784,9.4572688744585207
1786619091.7568572,1786619091.7565272,vesc,-0.00092281782700310644,-0.00092281782700310644,nan,nan,0.01,1,0,1,0,0,1786619091.7565272,nan,-0.0044091310611811384,-0.00028333745344381308,-0.00092281782700310644,-0.085601587147977831,0.31815944259300011,9.543884268344982
1786619091.7824459,1786619091.7816412,vesc,0.00010202497965468317,0.00010202497965468317,nan,nan,0.01,1,0,1,0,0,1786619091.7816412,nan,-0.0076171988371285066,-0.0013513597176199614,0.00010202497965468317,-0.084182632301369686,0.22158644102249703,9.8310644301841421
1786619091.8011878,1786619091.8007593,vesc,0.00013664298544310147,0.00013664298544310147,nan,nan,0.01,1,0,1,0,0,1786619091.8007593,nan,-0.0044216250317638921,-0.0024167209013006325,0.00013664298544310147,-0.10070105377124872,0.15513180902692802,9.6055443294808356
1786619091.8210893,1786619091.8207746,vesc,-0.0019533871777182511,-0.0019533871777182511,nan,nan,0.01,1,0,1,0,0,1786619091.8207746,nan,-0.0012010648456797202,-0.0013458357389526487,-0.0019533871777182511,-0.10943778104738211,0.12658507972385813,9.5335089684474497
1786619091.8416283,1786619091.8411021,vesc,0.0012518052164896727,0.0012518052164896727,nan,nan,0.01,1,0,1,0,0,1786619091.8411021,nan,-0.00017335514220734541,-0.002419717997824272,0.0012518052164896727,-0.10537840622466721,0.27490824437342809,9.5962308839912112
1786619091.8615527,1786619091.8611488,vesc,0.00015199995172556318,0.00015199995172556318,nan,nan,0.01,1,0,1,0,0,1786619091.8611488,nan,-0.0033564344568405551,-0.0013514939159717662,0.00015199995172556318,-0.09742818430507949,0.2314244000511323,9.735127989427383
1786619091.8813431,1786619091.8809569,vesc,0.0012421747942645664,0.0012421747942645664,nan,nan,0.01,1,0,1,0,0,1786619091.8809569,nan,-0.0012385462372793334,-0.0013544244334681541,0.0012421747942645664,-0.067060723332695638,0.2078467261848207,9.5964998559227297
1786619091.9013994,1786619091.9011149,vesc,0.00018271388429048652,0.00018271388429048652,nan,nan,0.01,1,0,1,0,0,1786619091.9011149,nan,-0.0012260522666965789,0.00077896005468596581,0.00018271388429048652,-0.13282454331447457,0.18419482922164576,9.4854857842395859
1786619091.9210968,1786619091.9207153,vesc,0.00021733189007890484,0.00021733189007890484,nan,nan,0.01,1,0,1,0,0,1786619091.9207153,nan,0.0019695210185193849,-0.00028640112899470504,0.00021733189007890484,-0.073030191729010596,0.19799648800279002,9.6970018028562208
1786619091.9410477,1786619091.9406419,vesc,-0.0019226731801347467,-0.0019226731801347467,nan,nan,0.01,1,0,1,0,0,1786619091.9406419,nan,0.00092931734446425576,0.00078461823170508345,-0.0019226731801347467,-0.12042168475762427,0.28433424876917712,9.6535640053591578
1786619091.9608929,1786619091.9606049,vesc,0.00016163047147854149,0.00016163047147854149,nan,nan,0.01,1,0,1,0,0,1786619091.9606049,nan,-0.0022912428416199163,-0.0024167885206251853,0.00016163047147854149,-0.08610720687060347,0.23182318017568804,9.5867595636722172
1786619091.980926,1786619091.9806333,vesc,0.00017308336453750821,0.00017308336453750821,nan,nan,0.01,1,0,1,0,0,1786619091.9806333,nan,-0.0022912438819172173,0.0018442536190420836,0.00017308336453750821,-0.10977485477161597,0.19835817485146379,9.5624409927334
1786619092.0009031,1786619092.0006297,vesc,0.0022977314359594074,0.0022977314359594074,nan,nan,0.01,1,0,1,0,0,1786619092.0006297,nan,-0.0023162307827854257,-0.00029199272698657058,0.0022977314359594074,-0.096473132950142038,0.22685322938399466,9.6536903052226535
1786619092.0209558,1786619092.0205915,vesc,0.0012518052164896727,0.0012518052164896727,nan,nan,0.01,1,0,1,0,0,1786619092.0205915,nan,-0.00017335514220734541,-0.002419717997824272,0.0012518052164896727,-0.16279873333603589,0.24618279126178599,9.5906900622019293
1786619092.0409005,1786619092.0406327,vesc,-0.0008824734071944954,-0.0008824734071944954,nan,nan,0.01,1,0,1,0,0,1786619092.0406327,nan,-0.0012135582961138242,0.00078182295285780096,-0.0008824734071944954,-0.058661069780796105,0.21236609417357144,9.697208794299172
1786619092.0612919,1786619092.0610361,vesc,-0.00088819985372397866,-0.00088819985372397866,nan,nan,0.01,1,0,1,0,0,1786619092.0610361,nan,-0.0012135582961138242,-0.001348698637124484,-0.00088819985372397866,-0.11439601913472064,0.2079769729190506,9.5480416388517142
1786619092.0814004,1786619092.0811546,vesc,0.0023698305407638233,0.0023698305407638233,nan,nan,0.01,1,0,1,0,0,1786619092.0811546,nan,0.004074915787646502,-0.0013574548195054202,0.0023698305407638233,-0.10115048540356053,0.19813899561786563,9.6439780796084733
1786619092.1012657,1786619092.1006403,vesc,0.0012421747942645664,0.0012421747942645664,nan,nan,0.01,1,0,1,0,0,1786619092.1006403,nan,-0.0012385462372793334,-0.0013544244334681541,0.0012421747942645664,-0.11974753730915655,0.23179849396104935,9.5959467092983459
1786619092.1228709,1786619092.1207125,vesc,0.0012200505314938681,0.0012200505314938681,nan,nan,0.01,1,0,1,0,0,1786619092.1207125,nan,-0.0033689284274233092,-0.00028909653930110944,0.0012200505314938681,-0.12346983840763759,0.21767317350714777,9.5048470855361984
1786619092.1413538,1786619092.1410599,vesc,0.00019520762730820652,0.00019520762730820652,nan,nan,0.01,1,0,1,0,0,1786619092.1410599,nan,-0.00016086117162459086,0.00077892676517233987,0.00019520762730820652,-0.049025470103764235,0.23632877066196833,9.6925953409520389
1786619092.1610498,1786619092.1606197,vesc,0.00018557710755522823,0.00018557710755522823,nan,nan,0.01,1,0,1,0,0,1786619092.1606197,nan,-0.0012260522666965789,0.0018442203295284576,0.00018557710755522823,-0.10064486568093489,0.21741494583485022,9.6009215205882583
1786619092.1809566,1786619092.1806715,vesc,0.00016735691800802484,0.00016735691800802484,nan,nan,0.01,1,0,1,0,0,1786619092.1806715,nan,-0.0022912428416199163,-0.00028626693064290023,0.00016735691800802484,-0.071513359969958223,0.19834408671564852,9.5676800981821088
1786619092.2009265,1786619092.2006335,vesc,0.0023005945942055676,0.0023005945942055676,nan,nan,0.01,1,0,1,0,0,1786619092.2006335,nan,-0.0023162318230827263,0.00077326754785592144,0.0023005945942055676,-0.072693118004776736,0.19328370507551185,9.6682498728200699
1786619092.2209687,1786619092.2206862,vesc,-0.00087961024894833511,-0.00087961024894833511,nan,nan,0.01,1,0,1,0,0,1786619092.2206862,nan,-0.0012135582961138242,0.0018470832277002929,-0.00087961024894833511,-0.067285439148851545,0.22216529712430244,9.6156974351740701
1786619092.2409768,1786619092.2406976,vesc,0.0013017801885605528,0.0013017801885605528,nan,nan,0.01,1,0,1,0,0,1786619092.2406976,nan,0.0040874100183035823,-0.0024198521961760772,0.0013017801885605528,-0.10148755912779439,0.15974158959157236,9.6726130653265727
1786619092.2608838,1786619092.2605846,vesc,0.0012950129245816069,0.0012950129245816069,nan,nan,0.01,1,0,1,0,0,1786619092.2605846,nan,0.0030222186631572692,-0.00028929731668016619,0.0012950129245816069,-0.11946663340268682,0.25581297312783313,9.5720620017795
1786619092.2808411,1786619092.2805972,vesc,0.00020770137032592652,0.00020770137032592652,nan,nan,0.01,1,0,1,0,0,1786619092.2805972,nan,0.00090432992344739716,0.00077889243536141293,0.00020770137032592652,-0.095742797411360492,0.22223056667181496,9.5914116086443073
1786619092.3009634,1786619092.3006957,vesc,0.00021733189007890484,0.00021733189007890484,nan,nan,0.01,1,0,1,0,0,1786619092.3006957,nan,0.0019695210185193849,-0.00028640112899470504,0.00021733189007890484,-0.096697848766297945,0.20764165335958751,9.6727978373490942
1786619092.3209424,1786619092.320653,vesc,-0.001950524019472091,-0.001950524019472091,nan,nan,0.01,1,0,1,0,0,1786619092.320653,nan,-0.0012010648456797202,-0.00028057442381285586,-0.001950524019472091,-0.12363836613347967,0.24637468957868869,9.5192932171451048
1786619092.3413095,1786619092.3406687,vesc,-0.00085462269789431371,-0.00085462269789431371,nan,nan,0.01,1,0,1,0,0,1786619092.3406687,nan,0.00091682389403015165,0.001847016648673041,-0.00085462269789431371,-0.044460475558423695,0.16921683850875091,9.7116303676012876
1786619092.3610637,1786619092.3606303,vesc,0.0013007393711110902,0.0013007393711110902,nan,nan,0.01,1,0,1,0,0,1786619092.3606303,nan,0.0030222186631572692,0.0018412232330048178,0.0013007393711110902,-0.095798985501674316,0.25095782876587691,9.5962788311616123
1786619092.3811262,1786619092.3808203,vesc,0.0012575316630191562,0.0012575316630191562,nan,nan,0.01,1,0,1,0,0,1786619092.3808203,nan,-0.00017335514220734541,-0.0002891974481392882,0.0012575316630191562,-0.077201933596078298,0.2172983304226932,9.6443102014717397
1786619092.4010231,1786619092.4006834,vesc,0.003369686284006951,0.003369686284006951,nan,nan,0.01,1,0,1,0,0,1786619092.4006834,nan,-0.0012635336582961921,-0.0024254105046543164,0.003369686284006951,-0.10053250777285694,0.19349058688316489,9.5912782921217286
1786619092.4208729,1786619092.4206448,vesc,-0.001950524019472091,-0.001950524019472091,nan,nan,0.01,1,0,1,0,0,1786619092.4206448,nan,-0.0012010648456797202,-0.00028057442381285586,-0.001950524019472091,-0.049194006965881165,0.24587020275414417,9.7069900170610026
1786619092.4410775,1786619092.4407237,vesc,-0.00088819985372397866,-0.00088819985372397866,nan,nan,0.01,1,0,1,0,0,1786619092.4407237,nan,-0.0012135582961138242,-0.001348698637124484,-0.00088819985372397866,-0.13316161703870844,0.26554794806638427,9.5144435362755075
1786619092.4614668,1786619092.4611576,vesc,0.0012575316630191562,0.0012575316630191562,nan,nan,0.01,1,0,1,0,0,1786619092.4611576,nan,-0.00017335514220734541,-0.0002891974481392882,0.0012575316630191562,-0.06824048136751415,0.18362626056531894,9.6970193445039286
1786619092.4814897,1786619092.4811103,vesc,0.0012786151083403919,0.0012786151083403919,nan,nan,0.01,1,0,1,0,0,1786619092.4811103,nan,0.00089183595286464255,0.0029065511271718623,0.0012786151083403919,-0.091065444957941999,0.17909446724277522,9.6009308761337024
1786619092.5012321,1786619092.5007124,vesc,0.0023255820152224267,0.0023255820152224267,nan,nan,0.01,1,0,1,0,0,1786619092.5007124,nan,-0.00018584859264144957,0.00077320096882866945,0.0023255820152224267,-0.11056136012816165,0.18380785316419335,9.6294582730791944
1786619092.5210545,1786619092.5207033,vesc,0.00022878478313787158,0.00022878478313787158,nan,nan,0.01,1,0,1,0,0,1786619092.5207033,nan,0.0019695210185193849,0.0039746410106725636,0.00022878478313787158,-0.081710749187379861,0.24131295576987455,9.620369360680229
1786619092.5412333,1786619092.5406799,vesc,0.00018948118077872315,0.00018948118077872315,nan,nan,0.01,1,0,1,0,0,1786619092.5406799,nan,-0.00016086117162459086,-0.001351594824809945,0.00018948118077872315,-0.096416944859828213,0.18854594357279986,9.6487973549553772
1786619092.5609877,1786619092.5606365,vesc,0.00020483814706118484,0.00020483814706118484,nan,nan,0.01,1,0,1,0,0,1786619092.5606365,nan,0.00090432992344739716,-0.00028636783948107899,0.00020483814706118484,-0.091683422588645591,0.21727304121391455,9.6537207107453469
1786619092.5815926,1786619092.5811,vesc,0.00017412421449626149,0.00017412421449626149,nan,nan,0.01,1,0,1,0,0,1786619092.5811,nan,-0.0012260522666965789,-0.0024168218101388111,0.00017412421449626149,-0.11974751903660685,0.20784838898684299,9.5958823899234176
1786619092.6013868,1786619092.6010604,vesc,0.00018375473424923978,0.00018375473424923978,nan,nan,0.01,1,0,1,0,0,1786619092.6010604,nan,-0.00016086117162459086,-0.00348211641479223,0.00018375473424923978,-0.12436870167226122,0.17435699810085836,9.5813660917236803
1786619092.6218102,1786619092.6213968,vesc,-0.002999313397187986,-0.002999313397187986,nan,nan,0.01,1,0,1,0,0,1786619092.6213968,nan,0.00094181131504701037,-0.0034735610097903504,-0.002999313397187986,-0.064237285498838226,0.23613612317052812,9.7642728523721871
1786619092.6413577,1786619092.6410367,vesc,0.00024231937611434481,0.00024231937611434481,nan,nan,0.01,1,0,1,0,0,1786619092.6410367,nan,0.004099903468737686,-0.00028646874831925781,0.00024231937611434481,-0.12363836613347967,0.2607447525632125,9.5193318087700618
1786619092.6609845,1786619092.6606798,vesc,-0.00086607559095328035,-0.00086607559095328035,nan,nan,0.01,1,0,1,0,0,1786619092.6606798,nan,0.00091682389403015165,-0.0024140254909942277,-0.00086607559095328035,-0.090896917232099916,0.20308321865958767,9.5866262471496384
1786619092.6809788,1786619092.6806445,vesc,-0.00089783040598624762,-0.00089783040598624762,nan,nan,0.01,1,0,1,0,0,1786619092.6806445,nan,-0.0022787488710371622,-0.00028340403247106507,-0.00089783040598624762,-0.1008695814970908,0.25089361902624674,9.6201705553395414
1786619092.7013295,1786619092.7009652,vesc,0.00013950620870784315,0.00013950620870784315,nan,nan,0.01,1,0,1,0,0,1786619092.7009652,nan,-0.0044216250317638921,-0.0013514606264581402,0.00013950620870784315,-0.11518252449126631,0.18384664578719701,9.6150320220043568
1786619092.721355,1786619092.721041,vesc,0.00017698743776100315,0.00017698743776100315,nan,nan,0.01,1,0,1,0,0,1786619092.721041,nan,-0.0012260522666965789,-0.001351561535296319,0.00017698743776100315,-0.058829606642913035,0.21711750527090601,9.7115906065331501
1786619092.7409277,1786619092.7406209,vesc,-0.00088819985372397866,-0.00088819985372397866,nan,nan,0.01,1,0,1,0,0,1786619092.7406209,nan,-0.0012135582961138242,-0.001348698637124484,-0.00088819985372397866,-0.1424601338552316,0.24645254891294144,9.4903307873364611
1786619092.7612867,1786619092.7609608,vesc,-0.00087961024894833511,-0.00087961024894833511,nan,nan,0.01,1,0,1,0,0,1786619092.7609608,nan,-0.0012135582961138242,0.0018470832277002929,-0.00087961024894833511,-0.072580760096698782,0.19330945109803288,9.6586709637284685
1786619092.7811944,1786619092.7807448,vesc,0.00018661795751398149,0.00018661795751398149,nan,nan,0.01,1,0,1,0,0,1786619092.7807448,nan,-0.00016086117162459086,-0.0024168550996524372,0.00018661795751398149,-0.11540725857997192,0.23648536641285922,9.6343325122555825
1786619092.8010368,1786619092.800709,vesc,0.0012614357687519416,0.0012614357687519416,nan,nan,0.01,1,0,1,0,0,1786619092.800709,nan,0.00089183595286464255,-0.003485012602477691,0.0012614357687519416,-0.086725166228757367,0.19815142095165861,9.6393564401590766
1786619092.8210759,1786619092.8207378,vesc,-0.00086711640840274296,-0.00086711640840274296,nan,nan,0.01,1,0,1,0,0,1786619092.8207378,nan,-0.00014836720104183631,0.0018470499381866669,-0.00086711640840274296,-0.11495780867511041,0.19347817982192161,9.5958999315711253
1786619092.8412578,1786619092.8409803,vesc,0.00020770137032592652,0.00020770137032592652,nan,nan,0.01,1,0,1,0,0,1786619092.8409803,nan,0.00090432992344739716,0.00077889243536141293,0.00020770137032592652,-0.062832802511588959,0.24124799685570686,9.6445429206646622
1786619092.8608694,1786619092.8606317,vesc,0.0012393115059812433,0.0012393115059812433,nan,nan,0.01,1,0,1,0,0,1786619092.8606317,nan,-0.0012385462372793334,-0.0024196847083106463,0.0012393115059812433,-0.10949395086514624,0.21279259375601534,9.5385305574645827
1786619092.8809729,1786619092.880733,vesc,0.0023255820152224267,0.0023255820152224267,nan,nan,0.01,1,0,1,0,0,1786619092.880733,nan,-0.00018584859264144957,0.00077320096882866945,0.0023255820152224267,-0.11518252449126631,0.18863666678203828,9.6150448858793425
1786619092.9009278,1786619092.9006872,vesc,-0.0019601543116600346,-0.0019601543116600346,nan,nan,0.01,1,0,1,0,0,1786619092.9006872,nan,-0.0022662559407517079,0.00078471914054326216,-0.0019601543116600346,-0.10526603004403956,0.20308365720078037,9.5864578473316442
1786619092.9211285,1786619092.9207861,vesc,0.0012575316630191562,0.0012575316630191562,nan,nan,0.01,1,0,1,0,0,1786619092.9207861,nan,-0.00017335514220734541,-0.0002891974481392882,0.0012575316630191562,-0.11501399676542423,0.18388525568470371,9.6006630736453644
1786619092.9410331,1786619092.940733,vesc,0.00017698743776100315,0.00017698743776100315,nan,nan,0.01,1,0,1,0,0,1786619092.940733,nan,-0.0012260522666965789,-0.001351561535296319,0.00017698743776100315,-0.053646634466868903,0.20762741904337467,9.6780930760704678
1786619092.9610002,1786619092.9607582,vesc,0.0012671622152814249,0.0012671622152814249,nan,nan,0.01,1,0,1,0,0,1786619092.9607582,nan,0.00089183595286464255,-0.0013544910124954062,0.0012671622152814249,-0.11061754821847547,0.22690517824277912,9.6343629177782759
1786619092.9810803,1786619092.9807591,vesc,0.00017022014127276652,0.00017022014127276652,nan,nan,0.01,1,0,1,0,0,1786619092.9807591,nan,-0.0022912438819172173,0.00077899334419959175,0.00017022014127276652,-0.081879286049496791,0.19337411765140544,9.6346096702893647
1786619093.0012608,1786619093.0007977,vesc,0.00017698743776100315,0.00017698743776100315,nan,nan,0.01,1,0,1,0,0,1786619093.0007977,nan,-0.0012260522666965789,-0.001351561535296319,0.00017698743776100315,-0.082272538727769629,0.17412393172949159,9.6680861507747977
1786619093.0211022,1786619093.0207293,vesc,-0.00086607559095328035,-0.00086607559095328035,nan,nan,0.01,1,0,1,0,0,1786619093.0207293,nan,0.00091682389403015165,-0.0024140254909942277,-0.00086607559095328035,-0.11929810567684473,0.24627155930820699,9.5576673256705362
1786619093.0410762,1786619093.0407488,vesc,-0.0019380303089636616,-0.0019380303089636616,nan,nan,0.01,1,0,1,0,0,1786619093.0407488,nan,-0.00013587375060773214,-0.00028060875362378264,-0.0019380303089636616,-0.049250185919920142,0.19316708966335483,9.7116385537035512
1786619093.0610044,1786619093.0606968,vesc,0.0012546685047729958,0.0012546685047729958,nan,nan,0.01,1,0,1,0,0,1786619093.0606968,nan,-0.00017335514220734541,-0.0013544577229817802,0.0012546685047729958,-0.11941046358492269,0.2558258552753685,9.567271962512109
1786619093.0811317,1786619093.0807674,vesc,0.0012450379525107266,0.0012450379525107266,nan,nan,0.01,1,0,1,0,0,1786619093.0807674,nan,-0.0012385462372793334,-0.00028916311832836143,0.0012450379525107266,-0.09140251868217586,0.19338729215973594,9.6297085339198247
1786619093.1008911,1786619093.1006885,vesc,0.00017985066102574486,0.00017985066102574486,nan,nan,0.01,1,0,1,0,0,1786619093.1006885,nan,-0.0012260522666965789,-0.00028630022015652622,0.00017985066102574486,-0.082384896635847582,0.19325825141378594,9.6777176848095223
1786619093.1211104,1786619093.1207576,vesc,0.00020483814706118484,0.00020483814706118484,nan,nan,0.01,1,0,1,0,0,1786619093.1207576,nan,0.00090432992344739716,-0.00028636783948107899,0.00020483814706118484,-0.12854043440305407,0.21281894277267632,9.5287271152823223
1786619093.1410828,1786619093.1407943,vesc,0.00019520762730820652,0.00019520762730820652,nan,nan,0.01,1,0,1,0,0,1786619093.1407943,nan,-0.00016086117162459086,0.00077892676517233987,0.00019520762730820652,-0.06824048136751415,0.19320630255500149,9.6970450722538999
1786619093.1610227,1786619093.160742,vesc,0.00020483814706118484,0.00020483814706118484,nan,nan,0.01,1,0,1,0,0,1786619093.160742,nan,0.00090432992344739716,-0.00028636783948107899,0.00020483814706118484,-0.1426848496713875,0.24640103859534968,9.5094897749628444
1786619093.1810939,1786619093.1807778,vesc,0.0012268176654356515,0.0012268176654356515,nan,nan,0.01,1,0,1,0,0,1786619093.1807778,nan,-0.0023037368122026708,-0.0024196514187970202,0.0012268176654356515,-0.072356044280542875,0.22210108738467227,9.6395891593519991
1786619093.2010736,1786619093.200772,vesc,0.0012364482176979203,0.0012364482176979203,nan,nan,0.01,1,0,1,0,0,1786619093.200772,nan,-0.0012385462372793334,-0.0034849449831531381,0.0012364482176979203,-0.11523871258158014,0.18862378463450291,9.6198349251467334
1786619093.2213106,1786619093.2206519,vesc,0.00020197492379644315,0.00020197492379644315,nan,nan,0.01,1,0,1,0,0,1786619093.2206519,nan,0.00090432992344739716,-0.0013516281143235711,0.00020197492379644315,-0.091964308222565627,0.20762862503165458,9.6776440098891499
1786619093.2484827,1786619093.2408237,vesc,0.00021446866681416318,0.00021446866681416318,nan,nan,0.01,1,0,1,0,0,1786619093.2408237,nan,0.0019695210185193849,-0.0013516614038371971,0.00021446866681416318,-0.15682927407599578,0.19855277750572142,9.4900337487686102
1786619093.2611527,1786619093.2605634,vesc,0.00020197492379644315,0.00020197492379644315,nan,nan,0.01,1,0,1,0,0,1786619093.2605634,nan,0.00090432992344739716,-0.0013516281143235711,0.00020197492379644315,-0.039446049380771342,0.20279833133728431,9.6926175603724687
1786619093.2811217,1786619093.2806044,vesc,0.0012546685047729958,0.0012546685047729958,nan,nan,0.01,1,0,1,0,0,1786619093.2806044,nan,-0.00017335514220734541,-0.0013544577229817802,0.0012546685047729958,-0.081991643957574745,0.23645857885500554,9.6443055236990176
1786619093.3010323,1786619093.3007247,vesc,-0.00087856930146170981,-0.00087856930146170981,nan,nan,0.01,1,0,1,0,0,1786619093.3007247,nan,-0.00014836720104183631,-0.002413992201480602,-0.00087856930146170981,-0.072693118004776736,0.18849368408067058,9.6682370089450842
1786619093.3211272,1786619093.3207943,vesc,0.00018271388429048652,0.00018271388429048652,nan,nan,0.01,1,0,1,0,0,1786619093.3207943,nan,-0.0012260522666965789,0.00077896005468596581,0.00018271388429048652,-0.10966249686353802,0.22712404684303245,9.5529380974485321
1786619093.3410232,1786619093.3406951,vesc,-0.0019255363383809071,-0.0019255363383809071,nan,nan,0.01,1,0,1,0,0,1786619093.3406951,nan,0.00092931734446425576,-0.00028064204313740869,-0.0019255363383809071,-0.077651365228390112,0.15492505512712285,9.6824597769065122
1786619093.3609586,1786619093.3606555,vesc,-0.00085071859216152813,-0.00085071859216152813,nan,nan,0.01,1,0,1,0,0,1786619093.3606555,nan,0.0019820149891021394,-0.0013487985056653618,-0.00085071859216152813,-0.091177802866019952,0.21259888645669278,9.6106010017933841
1786619093.3811991,1786619093.3808622,vesc,0.0012575316630191562,0.0012575316630191562,nan,nan,0.01,1,0,1,0,0,1786619093.3808622,nan,-0.00017335514220734541,-0.0002891974481392882,0.0012575316630191562,-0.10610872349089906,0.25558078383885174,9.658445261194629
1786619093.401032,1786619093.4007089,vesc,-0.00087284285493222644,-0.00087284285493222644,nan,nan,0.01,1,0,1,0,0,1786619093.4007089,nan,-0.00014836720104183631,-0.00028347165179561784,-0.00087284285493222644,-0.11467692304119037,0.20791259872647316,9.571989496302308
1786619093.4210224,1786619093.4206841,vesc,0.0012421747942645664,0.0012421747942645664,nan,nan,0.01,1,0,1,0,0,1786619093.4206841,nan,-0.0012385462372793334,-0.0013544244334681541,0.0012421747942645664,-0.087792575491772773,0.20269682732372551,9.730374202898588
1786619093.4409764,1786619093.4406574,vesc,-0.00084499214563204465,-0.00084499214563204465,nan,nan,0.01,1,0,1,0,0,1786619093.4406574,nan,0.0019820149891021394,0.00078172204401962214,-0.00084499214563204465,-0.12820336067882021,0.24163632508183674,9.500065232371071
1786619093.4611418,1786619093.4607744,vesc,0.0012518052164896727,0.0012518052164896727,nan,nan,0.01,1,0,1,0,0,1786619093.4607744,nan,-0.00017335514220734541,-0.002419717997824272,0.0012518052164896727,-0.072749296958815712,0.18848080193313521,9.6730270482124752
1786619093.4811237,1786619093.4807932,vesc,-0.00086321230266995738,-0.00086321230266995738,nan,nan,0.01,1,0,1,0,0,1786619093.4807932,nan,0.00091682389403015165,-0.0013487652161517359,-0.00086321230266995738,-0.11518254276381601,0.23653687673045098,9.6151735246291992
1786619093.5011792,1786619093.5008721,vesc,0.0012518052164896727,0.0012518052164896727,nan,nan,0.01,1,0,1,0,0,1786619093.5008721,nan,-0.00017335514220734541,-0.002419717997824272,0.0012518052164896727,-0.12008459276084071,0.19819109065704765,9.624594558891431
1786619093.5209708,1786619093.5206976,vesc,0.00019807085057294823,0.00019807085057294823,nan,nan,0.01,1,0,1,0,0,1786619093.5206976,nan,-0.00016086117162459086,0.0018441870400148319,0.00019807085057294823,-0.062888981465627936,0.21249498873912387,9.6492557766821392
1786619093.5409324,1786619093.5406899,vesc,0.00018948118077872315,0.00018948118077872315,nan,nan,0.01,1,0,1,0,0,1786619093.5406899,nan,-0.00016086117162459086,-0.001351594824809945,0.00018948118077872315,-0.18089016551900627,0.23684794861646807,9.4994349024967732
1786619093.5610104,1786619093.5607135,vesc,0.00018271388429048652,0.00018271388429048652,nan,nan,0.01,1,0,1,0,0,1786619093.5607135,nan,-0.0012260522666965789,0.00077896005468596581,0.00018271388429048652,-0.072974012774971619,0.18842930988809314,9.6921860358388585
1786619093.5815821,1786619093.5812511,vesc,-0.00084499214563204465,-0.00084499214563204465,nan,nan,0.01,1,0,1,0,0,1786619093.5812511,nan,0.0019820149891021394,0.00078172204401962214,-0.00084499214563204465,-0.11985987694468481,0.21261266395916323,9.6054741628900047
1786619093.6017721,1786619093.6013124,vesc,0.00017412421449626149,0.00017412421449626149,nan,nan,0.01,1,0,1,0,0,1786619093.6013124,nan,-0.0012260522666965789,-0.0024168218101388111,0.00017412421449626149,-0.11969134921884272,0.19349118987730485,9.5910537590310696
1786619093.6210401,1786619093.6207252,vesc,0.00022305833660838821,0.00022305833660838821,nan,nan,0.01,1,0,1,0,0,1786619093.6207252,nan,0.0019695210185193849,0.0018441194206902792,0.00022305833660838821,-0.096473132950142038,0.17416299844074068,9.6535488025978111
1786619093.6413631,1786619093.6410527,vesc,-0.00088533669547781837,-0.00088533669547781837,nan,nan,0.01,1,0,1,0,0,1786619093.6410527,nan,-0.0012135582961138242,-0.00028343732198469102,-0.00088533669547781837,-0.10526604831658926,0.26056392741142531,9.5866122138314722
1786619093.6608899,1786619093.6606178,vesc,-0.00088533669547781837,-0.00088533669547781837,nan,nan,0.01,1,0,1,0,0,1786619093.6606178,nan,-0.0012135582961138242,-0.00028343732198469102,-0.00088533669547781837,-0.1345661000259577,0.2316959484121579,9.6340951152899379
1786619093.6809068,1786619093.6806779,vesc,0.0022852377254509782,0.0022852377254509782,nan,nan,0.01,1,0,1,0,0,1786619093.6806779,nan,-0.0033814223980060637,-0.00029195943747294459,0.0022852377254509782,-0.12420017394641913,0.23666589920385128,9.5671643737395016
1786619093.7008445,1786619093.7006214,vesc,-0.00088819985372397866,-0.00088819985372397866,nan,nan,0.01,1,0,1,0,0,1786619093.7006214,nan,-0.0012135582961138242,-0.001348698637124484,-0.00088819985372397866,-0.12915841203375766,0.16956712328641466,9.5812970945760298
1786619093.7210398,1786619093.7206905,vesc,-0.0019283997567013926,-0.0019283997567013926,nan,nan,0.01,1,0,1,0,0,1786619093.7206905,nan,0.00092931734446425576,-0.0013459023179799006,-0.0019283997567013926,-0.068071944505397219,0.21240501470442297,9.6827275793948502
1786619093.7408862,1786619093.7406278,vesc,0.00020874222028467981,0.00020874222028467981,nan,nan,0.01,1,0,1,0,0,1786619093.7406278,nan,0.0019695210185193849,-0.0034821829938194819,0.00020874222028467981,-0.12386308194963558,0.27027330250785297,9.5385165241464165
1786619093.7610905,1786619093.7607887,vesc,0.0012393115059812433,0.0012393115059812433,nan,nan,0.01,1,0,1,0,0,1786619093.7607887,nan,-0.0012385462372793334,-0.0024196847083106463,0.0012393115059812433,-0.11540725857997192,0.20295521944897033,9.6342424651306828
1786619093.7812603,1786619093.7808754,vesc,-0.0019351668906431761,-0.0019351668906431761,nan,nan,0.01,1,0,1,0,0,1786619093.7808754,nan,-0.00013587375060773214,0.00078465256151601006,-0.0019351668906431761,-0.091458706772489684,0.22690457524863916,9.6345874508689349
1786619093.801455,1786619093.8010745,vesc,0.00016735691800802484,0.00016735691800802484,nan,nan,0.01,1,0,1,0,0,1786619093.8010745,nan,-0.0022912428416199163,-0.00028626693064290023,0.00016735691800802484,-0.067622512873085405,0.20771797779966583,9.6443967402670978
1786619093.8213556,1786619093.8210073,vesc,0.00018661795751398149,0.00018661795751398149,nan,nan,0.01,1,0,1,0,0,1786619093.8210073,nan,-0.00016086117162459086,-0.0024168550996524372,0.00018661795751398149,-0.11929810567684473,0.23669151731852445,9.5576415979205649
1786619093.8414533,1786619093.8411088,vesc,-0.0019601543116600346,-0.0019601543116600346,nan,nan,0.01,1,0,1,0,0,1786619093.8411088,nan,-0.0022662559407517079,0.00078471914054326216,-0.0019601543116600346,-0.034937233789469779,0.20752383195915058,9.7166355844138934
1786619093.861058,1786619093.8607228,vesc,0.0012325442420022975,0.0012325442420022975,nan,nan,0.01,1,0,1,0,0,1786619093.8607228,nan,-0.0023037368122026708,-0.00028912982881473543,0.0012325442420022975,-0.1049289745923554,0.26543118647382968,9.5578871809884731
1786619093.8813293,1786619093.8807731,vesc,0.00018948118077872315,0.00018948118077872315,nan,nan,0.01,1,0,1,0,0,1786619093.8807731,nan,-0.00016086117162459086,-0.001351594824809945,0.00018948118077872315,-0.072693118004776736,0.15975355811162295,9.6681598256951702
1786619093.9010425,1786619093.9007363,vesc,-0.00086321230266995738,-0.00086321230266995738,nan,nan,0.01,1,0,1,0,0,1786619093.9007363,nan,0.00091682389403015165,-0.0013487652161517359,-0.00086321230266995738,-0.08176691900514399,0.17423977969456139,9.6249793056978206
1786619093.9209752,1786619093.9206991,vesc,0.00019234440404346486,0.00019234440404346486,nan,nan,0.01,1,0,1,0,0,1786619093.9206991,nan,-0.00016086117162459086,-0.00028633454996745305,0.00019234440404346486,-0.090784559324021963,0.19352890441987647,9.5770216103080656
1786619093.94102,1786619093.9406779,vesc,0.00016058962151978823,0.00016058962151978823,nan,nan,0.01,1,0,1,0,0,1786619093.9406779,nan,-0.0033564354971378557,0.0018442879488530107,0.00016058962151978823,-0.067734870781163359,0.27475254397747229,9.6541569130516791
1786619093.9610827,1786619093.9606612,vesc,0.00017985066102574486,0.00017985066102574486,nan,nan,0.01,1,0,1,0,0,1786619093.9606612,nan,-0.0012260522666965789,-0.00028630022015652622,0.00017985066102574486,-0.14724986248927774,0.27519282106238663,9.4903518373137103
1786619093.9814191,1786619093.980875,vesc,-0.00088533669547781837,-0.00088533669547781837,nan,nan,0.01,1,0,1,0,0,1786619093.980875,nan,-0.0012135582961138242,-0.00028343732198469102,-0.00088533669547781837,-0.082104001865652698,0.16937252063215702,9.6537043385408197
1786619094.001101,1786619094.0008693,vesc,-0.00087570614321554941,-0.00087570614321554941,nan,nan,0.01,1,0,1,0,0,1786619094.0008693,nan,-0.00014836720104183631,-0.0013487319266381099,-0.00087570614321554941,-0.077370470458195229,0.16935949230422409,9.6585505110808754
1786619094.0208292,1786619094.0205772,vesc,0.00021733189007890484,0.00021733189007890484,nan,nan,0.01,1,0,1,0,0,1786619094.0205772,nan,0.0019695210185193849,-0.00028640112899470504,0.00021733189007890484,-0.10464807068588566,0.22238535344028598,9.5338235486630083
1786619094.0409441,1786619094.0406759,vesc,0.0012450379525107266,0.0012450379525107266,nan,nan,0.01,1,0,1,0,0,1786619094.0406759,nan,-0.0012385462372793334,-0.00028916311832836143,0.0012450379525107266,-0.10126284331163848,0.22685339383694192,9.6536341719499887
1786619094.0610032,1786619094.0607235,vesc,-0.00088819985372397866,-0.00088819985372397866,nan,nan,0.01,1,0,1,0,0,1786619094.0607235,nan,-0.0012135582961138242,-0.001348698637124484,-0.00088819985372397866,-0.076752501963766484,0.26051152173889847,9.606108001093844
1786619094.08167,1786619094.0812068,vesc,-0.003006080531129769,-0.003006080531129769,nan,nan,0.01,1,0,1,0,0,1786619094.0812068,nan,-0.00012337978002497762,-0.0013430061302944394,-0.003006080531129769,-0.067453976010968475,0.22212666895424604,9.6300663835330624
1786619094.1013999,1786619094.100965,vesc,0.002353432854559771,0.002353432854559771,nan,nan,0.01,1,0,1,0,0,1786619094.100965,nan,0.0019445335975025262,0.0018383936243466085,0.002353432854559771,-0.07664014405568853,0.20305701582332425,9.5963747255024145
1786619094.1213386,1786619094.1209431,vesc,0.00018948118077872315,0.00018948118077872315,nan,nan,0.01,1,0,1,0,0,1786619094.1209431,nan,-0.00016086117162459086,-0.001351594824809945,0.00018948118077872315,-0.10036398004701486,0.20310925704290383,9.5769350715127075
1786619094.1409771,1786619094.1407411,vesc,-0.00087284285493222644,-0.00087284285493222644,nan,nan,0.01,1,0,1,0,0,1786619094.1407411,nan,-0.00014836720104183631,-0.00028347165179561784,-0.00087284285493222644,-0.058773427688874058,0.20755032715620914,9.7067748395157878
1786619094.1610565,1786619094.1607158,vesc,0.00015199995172556318,0.00015199995172556318,nan,nan,0.01,1,0,1,0,0,1786619094.1607158,nan,-0.0033564344568405551,-0.0013514939159717662,0.00015199995172556318,-0.067116902286734614,0.28926421922213663,9.601508581064877
1786619094.1810563,1786619094.1807349,vesc,0.0012450379525107266,0.0012450379525107266,nan,nan,0.01,1,0,1,0,0,1786619094.1807349,nan,-0.0012385462372793334,-0.00028916311832836143,0.0012450379525107266,-0.087118428043305052,0.1884812587468776,9.672858648394481
1786619094.2010329,1786619094.2007568,vesc,0.0012450379525107266,0.0012450379525107266,nan,nan,0.01,1,0,1,0,0,1786619094.2007568,nan,-0.0012385462372793334,-0.00028916311832836143,0.0012450379525107266,-0.10560310376827342,0.19821639813837599,9.6151828801746433
1786619094.2209182,1786619094.2206438,vesc,0.0012757519500942313,0.0012757519500942313,nan,nan,0.01,1,0,1,0,0,1786619094.2206438,nan,0.00089183595286464255,0.0018412908523293707,0.0012757519500942313,-0.10143137103748057,0.20765468168752044,9.6679516648090384
1786619094.2409916,1786619094.2407391,vesc,0.0012518052164896727,0.0012518052164896727,nan,nan,0.01,1,0,1,0,0,1786619094.2407391,nan,-0.00017335514220734541,-0.002419717997824272,0.0012518052164896727,-0.15237662830245835,0.23679554294394123,9.518930689759145
1786619094.2609138,1786619094.2606802,vesc,-0.00088819985372397866,-0.00088819985372397866,nan,nan,0.01,1,0,1,0,0,1786619094.2606802,nan,-0.0012135582961138242,-0.001348698637124484,-0.00088819985372397866,-0.077763723136468066,0.20279953732556422,9.6921684941911508
1786619094.2809453,1786619094.2806661,vesc,0.00019234440404346486,0.00019234440404346486,nan,nan,0.01,1,0,1,0,0,1786619094.2806661,nan,-0.00016086117162459086,-0.00028633454996745305,0.00019234440404346486,-0.12442488976257504,0.23182438616396794,9.5863104974908993
1786619094.3009894,1786619094.3006835,vesc,0.0012325442420022975,0.0012325442420022975,nan,nan,0.01,1,0,1,0,0,1786619094.3006835,nan,-0.0023037368122026708,-0.00028912982881473543,0.0012325442420022975,-0.10565929185858725,0.19341349499599936,9.6199600555670486
1786619094.3214636,1786619094.320792,vesc,-0.00090746082821135401,-0.00090746082821135401,nan,nan,0.01,1,0,1,0,0,1786619094.320792,nan,-0.0033439415265551012,0.00078188953188505295,-0.00090746082821135401,-0.076752501963766484,0.20782129079564449,9.6059664984690016
1786619094.3414161,1786619094.341121,vesc,0.00017412421449626149,0.00017412421449626149,nan,nan,0.01,1,0,1,0,0,1786619094.341121,nan,-0.0012260522666965789,-0.0024168218101388111,0.00017412421449626149,-0.1057716497666652,0.20296779096316087,9.6295658618518019
1786619094.3609912,1786619094.3607211,vesc,-0.00086997969668606593,-0.00086997969668606593,nan,nan,0.01,1,0,1,0,0,1786619094.3607211,nan,-0.00014836720104183631,0.00078178966334417502,-0.00086997969668606593,-0.058099271104131489,0.25081501051745647,9.6494148209546893
1786619094.3813281,1786619094.3810589,vesc,0.0012325442420022975,0.0012325442420022975,nan,nan,0.01,1,0,1,0,0,1786619094.3810589,nan,-0.0023037368122026708,-0.00028912982881473543,0.0012325442420022975,-0.14296575357785724,0.20322647544920081,9.5333218575385672
1786619094.4011111,1786619094.4007692,vesc,-0.00087284285493222644,-0.00087284285493222644,nan,nan,0.01,1,0,1,0,0,1786619094.4007692,nan,-0.00014836720104183631,-0.00028347165179561784,-0.00087284285493222644,-0.11997223485276276,0.18384679196759457,9.6149758887316921
1786619094.4212308,1786619094.420898,vesc,-0.00087284285493222644,-0.00087284285493222644,nan,nan,0.01,1,0,1,0,0,1786619094.420898,nan,-0.00014836720104183631,-0.00028347165179561784,-0.00087284285493222644,-0.077595186274351136,0.19325810523338838,9.6777738180821871
1786619094.4410739,1786619094.4407339,vesc,0.0012661213978319625,0.0012661213978319625,nan,nan,0.01,1,0,1,0,0,1786619094.4407339,nan,-0.00017335514220734541,0.0029065844166854889,0.0012661213978319625,-0.1141151335008006,0.25115155433774916,9.5242083868328109
1786619094.4611821,1786619094.4608068,vesc,0.00019234440404346486,0.00019234440404346486,nan,nan,0.01,1,0,1,0,0,1786619094.4608068,nan,-0.00016086117162459086,-0.00028633454996745305,0.00019234440404346486,-0.067959586597319266,0.212430760726944,9.6731475008600682
1786619094.4812262,1786619094.4808583,vesc,0.00016735691800802484,0.00016735691800802484,nan,nan,0.01,1,0,1,0,0,1786619094.4808583,nan,-0.0022912428416199163,-0.00028626693064290023,0.00016735691800802484,-0.091065444957941999,0.2317847164585789,9.6010735482017253
1786619094.501174,1786619094.5008316,vesc,0.0012450379525107266,0.0012450379525107266,nan,nan,0.01,1,0,1,0,0,1786619094.5008316,nan,-0.0012385462372793334,-0.00028916311832836143,0.0012450379525107266,-0.091571064680567638,0.18376862199999699,9.6440517545288458
1786619094.5210345,1786619094.5207388,vesc,-0.0019255363383809071,-0.0019255363383809071,nan,nan,0.01,1,0,1,0,0,1786619094.5207388,nan,0.00092931734446425576,-0.00028064204313740869,-0.0019255363383809071,-0.053815171328985834,0.18363868589911192,9.6923977050545318
1786619094.541127,1786619094.5408106,vesc,0.00018948118077872315,0.00018948118077872315,nan,nan,0.01,1,0,1,0,0,1786619094.5408106,nan,-0.00016086117162459086,-0.001351594824809945,0.00018948118077872315,-0.12876516849175967,0.27503772366057078,9.5480533332835194
1786619094.5610478,1786619094.5607255,vesc,0.0012421747942645664,0.0012421747942645664,nan,nan,0.01,1,0,1,0,0,1786619094.5607255,nan,-0.0012385462372793334,-0.0013544244334681541,0.0012421747942645664,-0.053758992374946857,0.20281165202601237,9.6876591212870835
1786619094.5813901,1786619094.5809329,vesc,-0.00089783040598624762,-0.00089783040598624762,nan,nan,0.01,1,0,1,0,0,1786619094.5809329,nan,-0.0022787488710371622,-0.00028340403247106507,-0.00089783040598624762,-0.12876515021920998,0.26545768167088823,9.548027605533548
1786619094.6013207,1786619094.6008708,vesc,-0.00089392630025346203,-0.00089392630025346203,nan,nan,0.01,1,0,1,0,0,1786619094.6008708,nan,-0.0012135582961138242,-0.003479219186809468,-0.00089392630025346203,-0.081823107095457814,0.20775706278346462,9.6298593920901112
1786619094.62166,1786619094.6207824,vesc,0.0012296809537189744,0.0012296809537189744,nan,nan,0.01,1,0,1,0,0,1786619094.6207824,nan,-0.0023037368122026708,-0.0013543901036572276,0.0012296809537189744,-0.11033664431200574,0.17906932421439414,9.6102864215778254
1786619094.6410351,1786619094.6407542,vesc,0.00020770137032592652,0.00020770137032592652,nan,nan,0.01,1,0,1,0,0,1786619094.6407542,nan,0.00090432992344739716,0.00077889243536141293,0.00020770137032592652,-0.067791049735202336,0.25557957785057184,9.6588943273759469
1786619094.6610765,1786619094.6607823,vesc,-0.00088819985372397866,-0.00088819985372397866,nan,nan,0.01,1,0,1,0,0,1786619094.6607823,nan,-0.0012135582961138242,-0.001348698637124484,-0.00088819985372397866,-0.12876515021920998,0.25108761868636442,9.547989013908591
1786619094.6811953,1786619094.6808331,vesc,-0.00091605056302416035,-0.00091605056302416035,nan,nan,0.01,1,0,1,0,0,1786619094.6808331,nan,-0.0033439404862578002,-0.0024138923329397239,-0.00091605056302416035,-0.058155450058170466,0.2029019184215084,9.6540762214722236
1786619094.7012143,1786619094.7009048,vesc,0.00020197492379644315,0.00020197492379644315,nan,nan,0.01,1,0,1,0,0,1786619094.7009048,nan,0.00090432992344739716,-0.0013516281143235711,0.00020197492379644315,-0.082047822911613721,0.16459538178485111,9.6489026048416235
1786619094.7214692,1786619094.7211401,vesc,0.0012575316630191562,0.0012575316630191562,nan,nan,0.01,1,0,1,0,0,1786619094.7211401,nan,-0.00017335514220734541,-0.0002891974481392882,0.0012575316630191562,-0.082216359773730652,0.16455675361479472,9.6632715532006159
1786619094.7410519,1786619094.7407377,vesc,0.00018948118077872315,0.00018948118077872315,nan,nan,0.01,1,0,1,0,0,1786619094.7407377,nan,-0.00016086117162459086,-0.001351594824809945,0.00018948118077872315,-0.076864859871844438,0.24132569173701235,9.6156366241286833
1786619094.7609673,1786619094.7606812,vesc,-0.0019380303089636616,-0.0019380303089636616,nan,nan,0.01,1,0,1,0,0,1786619094.7606812,nan,-0.00013587375060773214,-0.00028060875362378264,-0.0019380303089636616,-0.12898986603536589,0.23187604266195727,9.5670953765918512
1786619094.7813644,1786619094.7810361,vesc,-0.0019351668906431761,-0.0019351668906431761,nan,nan,0.01,1,0,1,0,0,1786619094.7810361,nan,-0.00013587375060773214,0.00078465256151601006,-0.0019351668906431761,-0.05860488169048228,0.20758895532626553,9.6924058911567954
1786619094.8012631,1786619094.8008492,vesc,-0.001950524019472091,-0.001950524019472091,nan,nan,0.01,1,0,1,0,0,1786619094.8008492,nan,-0.0012010648456797202,-0.00028057442381285586,-0.001950524019472091,-0.12008459276084071,0.18382102767252384,9.624555967266474
1786619094.8211904,1786619094.8208041,vesc,-0.00087856930146170981,-0.00087856930146170981,nan,nan,0.01,1,0,1,0,0,1786619094.8208041,nan,-0.00014836720104183631,-0.002413992201480602,-0.00087856930146170981,-0.095293365779048678,0.21275352704476624,9.5530679056415693
1786619094.8416929,1786619094.8409355,vesc,0.00019520762730820652,0.00019520762730820652,nan,nan,0.01,1,0,1,0,0,1786619094.8409355,nan,-0.00016086117162459086,0.00077892676517233987,0.00019520762730820652,-0.063563128914095657,0.18839038935724162,9.7066672507431804
1786619094.8612287,1786619094.860868,vesc,-0.0019533871777182511,-0.0019533871777182511,nan,nan,0.01,1,0,1,0,0,1786619094.860868,nan,-0.0012010648456797202,-0.0013458357389526487,-0.0019533871777182511,-0.1236945542237935,0.28947201465727446,9.5241990312873668
1786619094.8812191,1786619094.8808117,vesc,-0.0019255363383809071,-0.0019255363383809071,nan,nan,0.01,1,0,1,0,0,1786619094.8808117,nan,0.00092931734446425576,-0.00028064204313740869,-0.0019255363383809071,-0.10092576958740462,0.21256055064743151,9.624857683607047
1786619094.9013481,1786619094.9009476,vesc,0.0012518052164896727,0.0012518052164896727,nan,nan,0.01,1,0,1,0,0,1786619094.9009476,nan,-0.00017335514220734541,-0.002419717997824272,0.0012518052164896727,-0.12915841203375766,0.18393718627093847,9.5813356862009869
1786619094.9211593,1786619094.9207675,vesc,0.003387906050933376,0.003387906050933376,nan,nan,0.01,1,0,1,0,0,1786619094.9207675,nan,-0.00019834256322420413,-0.00029492324448295856,0.003387906050933376,-0.11456456513311242,0.18398825804733754,9.5623462678357782
1786619094.9411004,1786619094.9407616,vesc,0.0012671622152814249,0.0012671622152814249,nan,nan,0.01,1,0,1,0,0,1786619094.9407616,nan,0.00089183595286464255,-0.0013544910124954062,0.0012671622152814249,-0.059054322459068942,0.22664603694299679,9.7307753219095048
1786619094.9611208,1786619094.960835,vesc,0.0012642990570352647,0.0012642990570352647,nan,nan,0.01,1,0,1,0,0,1786619094.960835,nan,0.00089183595286464255,-0.0024197512873378982,0.0012642990570352647,-0.13800749721796901,0.25116516738727235,9.5191376812020962
1786619094.981055,1786619094.9807384,vesc,0.00022696240983188315,0.00022696240983188315,nan,nan,0.01,1,0,1,0,0,1786619094.9807384,nan,0.0030347123736656984,-0.0013516957336481238,0.00022696240983188315,-0.077089575688000345,0.19816399246584915,9.6346798368801956
1786619095.000984,1786619095.0006564,vesc,0.0012518052164896727,0.0012518052164896727,nan,nan,0.01,1,0,1,0,0,1786619095.0006564,nan,-0.00017335514220734541,-0.002419717997824272,0.0012518052164896727,-0.11501399676542423,0.22699544463827515,9.6007788485202354
1786619095.0211365,1786619095.0207908,vesc,0.003378275498671107,0.003378275498671107,nan,nan,0.01,1,0,1,0,0,1786619095.0207908,nan,-0.0012635336582961921,0.00077037136017046024,0.003378275498671107,-0.12036549666731045,0.22207683971122627,9.6486067357169532
1786619095.0410903,1786619095.0407591,vesc,0.00017022014127276652,0.00017022014127276652,nan,nan,0.01,1,0,1,0,0,1786619095.0407591,nan,-0.0022912438819172173,0.00077899334419959175,0.00017022014127276652,-0.13845692885028082,0.21753201806074962,9.5573656093299633
1786619095.0610707,1786619095.0607629,vesc,0.0012603948212653164,0.0012603948212653164,nan,nan,0.01,1,0,1,0,0,1786619095.0607629,nan,-0.00017335514220734541,0.00077606386700050461,0.0012603948212653164,-0.077482828366273182,0.226814016492348,9.6682849561154853
1786619095.0817859,1786619095.0813968,vesc,0.0012700253735275855,0.0012700253735275855,nan,nan,0.01,1,0,1,0,0,1786619095.0813968,nan,0.00089183595286464255,-0.0002892307376529142,0.0012700253735275855,-0.063619307868134634,0.17879748349257341,9.7114315622606
1786619095.1011021,1786619095.1007347,vesc,0.0023477065380674497,0.0023477065380674497,nan,nan,0.01,1,0,1,0,0,1786619095.1007347,nan,0.0019445335975025262,-0.00029212692533837534,0.0023477065380674497,-0.14358371293601113,0.21266490517874281,9.5860345089002976
1786619095.1210816,1786619095.1207454,vesc,0.0012546685047729958,0.0012546685047729958,nan,nan,0.01,1,0,1,0,0,1786619095.1207454,nan,-0.00017335514220734541,-0.0013544577229817802,0.0012546685047729958,-0.10999957058777188,0.23183681149776092,9.581690027484683
1786619095.141242,1786619095.1408048,vesc,0.00017985066102574486,0.00017985066102574486,nan,nan,0.01,1,0,1,0,0,1786619095.1408048,nan,-0.0012260522666965789,-0.00028630022015652622,0.00017985066102574486,-0.11946663340268682,0.19354268192234692,9.5718947714046863
1786619095.1610889,1786619095.1607461,vesc,-0.00086997969668606593,-0.00086997969668606593,nan,nan,0.01,1,0,1,0,0,1786619095.1607461,nan,-0.00014836720104183631,0.00078178966334417502,-0.00086997969668606593,-0.029473375979505612,0.27952849510904798,9.6594088823753737
1786619095.1809552,1786619095.180687,vesc,0.00022696240983188315,0.00022696240983188315,nan,nan,0.01,1,0,1,0,0,1786619095.180687,nan,0.0030347123736656984,-0.0013516957336481238,0.00022696240983188315,-0.086163376688367599,0.21744023504362886,9.5915110113146511
1786619095.2011471,1786619095.20081,vesc,-0.00087856930146170981,-0.00087856930146170981,nan,nan,0.01,1,0,1,0,0,1786619095.20081,nan,-0.00014836720104183631,-0.002413992201480602,-0.00087856930146170981,-0.033757466618376419,0.21258421359928725,9.6160646403327519
1786619095.2210913,1786619095.2207301,vesc,0.00016449369474328318,0.00016449369474328318,nan,nan,0.01,1,0,1,0,0,1786619095.2207301,nan,-0.0022912428416199163,-0.0013515272054853921,0.00016449369474328318,-0.086949882044913274,0.21246999189114035,9.6585540194104169
1786619095.2410605,1786619095.2407074,vesc,0.0012421747942645664,0.0012421747942645664,nan,nan,0.01,1,0,1,0,0,1786619095.2407074,nan,-0.0012385462372793334,-0.0013544244334681541,0.0012421747942645664,-0.10013926423085895,0.22711087233470195,9.5578404032612525
1786619095.2609279,1786619095.2606721,vesc,-0.00088533669547781837,-0.00088533669547781837,nan,nan,0.01,1,0,1,0,0,1786619095.2606721,nan,-0.0012135582961138242,-0.00028343732198469102,-0.00088533669547781837,-0.10638962739736879,0.16450601074429017,9.6821487050204951
1786619095.2810304,1786619095.2807503,vesc,-0.0030032176329579342,-0.0030032176329579342,nan,nan,0.01,1,0,1,0,0,1786619095.2807503,nan,-0.00012337978002497762,-0.00027774585545194748,-0.0030032176329579342,-0.13338633285486434,0.20801620408324695,9.5334469879588823
1786619095.3009944,1786619095.300741,vesc,0.0012411338467779411,0.0012411338467779411,nan,nan,0.01,1,0,1,0,0,1786619095.300741,nan,-0.0023037378524999718,0.0029066520360100418,0.0012411338467779411,-0.077258112550117275,0.24602559251675515,9.6491774239890447
1786619095.3211889,1786619095.3208194,vesc,0.00019234440404346486,0.00019234440404346486,nan,nan,0.01,1,0,1,0,0,1786619095.3208194,nan,-0.00016086117162459086,-0.00028633454996745305,0.00019234440404346486,-0.11580050212196991,0.20286511750642156,9.6677704011160586
1786619095.3410838,1786619095.3407691,vesc,-0.00090069356423240813,-0.00090069356423240813,nan,nan,0.01,1,0,1,0,0,1786619095.3407691,nan,-0.0022787488710371622,-0.001348664307313557,-0.00090069356423240813,-0.11422749140887856,0.18885551710974191,9.5336200655495986
1786619095.3610072,1786619095.3607156,vesc,0.00020197492379644315,0.00020197492379644315,nan,nan,0.01,1,0,1,0,0,1786619095.3607156,nan,0.00090432992344739716,-0.0013516281143235711,0.00020197492379644315,-0.073030191729010596,0.19799648800279002,9.6970018028562208
1786619095.3809416,1786619095.380646,vesc,-0.00086997969668606593,-0.00086997969668606593,nan,nan,0.01,1,0,1,0,0,1786619095.380646,nan,-0.00014836720104183631,0.00078178966334417502,-0.00086997969668606593,-0.10464807068588566,0.2846556446457722,9.533990779037822
1786619095.4010925,1786619095.4007792,vesc,-0.0019630177299805205,-0.0019630177299805205,nan,nan,0.01,1,0,1,0,0,1786619095.4007792,nan,-0.0022662549004544073,-0.00028054113429922987,-0.0019630177299805205,-0.091964308222565627,0.18367850178489853,9.6775796905142215
1786619095.421031,1786619095.4207885,vesc,0.00017698743776100315,0.00017698743776100315,nan,nan,0.01,1,0,1,0,0,1786619095.4207885,nan,-0.0012260522666965789,-0.001351561535296319,0.00017698743776100315,-0.10549074586019547,0.19345212316605576,9.6055911072080562
1786619095.4410992,1786619095.4408231,vesc,-0.00087961024894833511,-0.00087961024894833511,nan,nan,0.01,1,0,1,0,0,1786619095.4408231,nan,-0.0012135582961138242,0.0018470832277002929,-0.00087961024894833511,-0.058155450058170466,0.19332187643182586,9.6540504937222522
1786619095.4614236,1786619095.460845,vesc,-0.0019255363383809071,-0.0019255363383809071,nan,nan,0.01,1,0,1,0,0,1786619095.460845,nan,0.00092931734446425576,-0.00028064204313740869,-0.0019255363383809071,-0.14274103776170133,0.24159813545297304,9.5142657809120692
1786619095.4811041,1786619095.4807503,vesc,-0.0019380303089636616,-0.0019380303089636616,nan,nan,0.01,1,0,1,0,0,1786619095.4807503,nan,-0.00013587375060773214,-0.00028060875362378264,-0.0019380303089636616,-0.14769927584903986,0.24634969273070517,9.528592629316563
1786619095.5011423,1786619095.500783,vesc,-0.00086034914442379708,-0.00086034914442379708,nan,nan,0.01,1,0,1,0,0,1786619095.500783,nan,0.00091682389403015165,-0.00028350494130924384,-0.00086034914442379708,-0.081654570233340884,0.1934256279689972,9.6154518521061618
1786619095.520967,1786619095.5206707,vesc,-0.0019533871777182511,-0.0019533871777182511,nan,nan,0.01,1,0,1,0,0,1786619095.5206707,nan,-0.0012010648456797202,-0.0013458357389526487,-0.0019533871777182511,-0.10571546167635137,0.20777067583298781,9.6247886864593966
1786619095.5413806,1786619095.5410454,vesc,-0.0019437566254559822,-0.0019437566254559822,nan,nan,0.01,1,0,1,0,0,1786619095.5410454,nan,-0.00013587375060773214,-0.0024111293033087667,-0.0019437566254559822,-0.11467692304119037,0.24623278495775303,9.5720924073021934
1786619095.5612583,1786619095.5607479,vesc,0.00020197492379644315,0.00020197492379644315,nan,nan,0.01,1,0,1,0,0,1786619095.5607479,nan,0.00090432992344739716,-0.0013516281143235711,0.00020197492379644315,-0.10154372894555852,0.17888879142340208,9.6774545600939064
1786619095.5810151,1786619095.5807266,vesc,-0.00084499214563204465,-0.00084499214563204465,nan,nan,0.01,1,0,1,0,0,1786619095.5807266,nan,0.0019820149891021394,0.00078172204401962214,-0.00084499214563204465,-0.086612826593229109,0.24607739519514205,9.6299061698173318
1786619095.6011579,1786619095.6008606,vesc,0.00021733189007890484,0.00021733189007890484,nan,nan,0.01,1,0,1,0,0,1786619095.6008606,nan,0.0019695210185193849,-0.00028640112899470504,0.00021733189007890484,-0.10554693395050929,0.19822926201336166,9.6103940103504328
1786619095.6210122,1786619095.6207244,vesc,-0.0019351668906431761,-0.0019351668906431761,nan,nan,0.01,1,0,1,0,0,1786619095.6207244,nan,-0.00013587375060773214,0.00078465256151601006,-0.0019351668906431761,-0.11507016658318836,0.18387239180971804,9.6054531129127554
1786619095.6412475,1786619095.6408679,vesc,-0.00086997969668606593,-0.00086997969668606593,nan,nan,0.01,1,0,1,0,0,1786619095.6408679,nan,-0.00014836720104183631,0.00078178966334417502,-0.00086997969668606593,-0.039895481013083156,0.22664543394885683,9.7309998550001637
1786619095.6610162,1786619095.6607857,vesc,0.00019234440404346486,0.00019234440404346486,nan,nan,0.01,1,0,1,0,0,1786619095.6607857,nan,-0.00016086117162459086,-0.00028633454996745305,0.00019234440404346486,-0.11851158204774936,0.27998194670229282,9.4907015008246844
1786619095.6816192,1786619095.681186,vesc,-0.00089783040598624762,-0.00089783040598624762,nan,nan,0.01,1,0,1,0,0,1786619095.681186,nan,-0.0022787488710371622,-0.00028340403247106507,-0.00089783040598624762,-0.090672201415944009,0.23666485766851864,9.5675584760913353
1786619095.7010558,1786619095.7007322,vesc,-0.00087284285493222644,-0.00087284285493222644,nan,nan,0.01,1,0,1,0,0,1786619095.7007322,nan,-0.00014836720104183631,-0.00028347165179561784,-0.00087284285493222644,-0.067566333919046428,0.15504062900394722,9.6394651983748645
1786619095.7211306,1786619095.7208452,vesc,-0.00087284285493222644,-0.00087284285493222644,nan,nan,0.01,1,0,1,0,0,1786619095.7208452,nan,-0.00014836720104183631,-0.00028347165179561784,-0.00087284285493222644,-0.10588400767474315,0.17420191897159221,9.6390675876934893
1786619095.7411871,1786619095.740875,vesc,0.0023448431197469642,0.0023448431197469642,nan,nan,0.01,1,0,1,0,0,1786619095.740875,nan,0.0019445335975025262,-0.0013573872001808674,0.0023448431197469642,-0.083059044084315303,0.21226385925802482,9.7352449337454345
1786619095.7618303,1786619095.761342,vesc,0.00019807085057294823,0.00019807085057294823,nan,nan,0.01,1,0,1,0,0,1786619095.761342,nan,-0.00016086117162459086,0.0018441870400148319,0.00019807085057294823,-0.13733334976950129,0.28005978776399587,9.4617390710160407
1786619095.7815838,1786619095.7807989,vesc,0.00018844033081996989,0.00018844033081996989,nan,nan,0.01,1,0,1,0,0,1786619095.7807989,nan,-0.0012260522666965789,0.0029094806043709499,0.00018844033081996989,-0.058267807966248419,0.21724623538351118,9.663693722188782
1786619095.8011315,1786619095.8007803,vesc,0.0012450379525107266,0.0012450379525107266,nan,nan,0.01,1,0,1,0,0,1786619095.8007803,nan,-0.0012385462372793334,-0.00028916311832836143,0.0012450379525107266,-0.13389193430494029,0.20790033784562745,9.57655500247904
1786619095.821197,1786619095.8208809,vesc,-0.00086711640840274296,-0.00086711640840274296,nan,nan,0.01,1,0,1,0,0,1786619095.8208809,nan,-0.00014836720104183631,0.0018470499381866669,-0.00086711640840274296,-0.091346348864411731,0.17424007205535652,9.6248670391524911
1786619095.8411198,1786619095.8407698,vesc,0.0012546685047729958,0.0012546685047729958,nan,nan,0.01,1,0,1,0,0,1786619095.8407698,nan,-0.00017335514220734541,-0.0013544577229817802,0.0012546685047729958,-0.13016963320645925,0.17412543007856662,9.6675248180481503
1786619095.8608863,1786619095.8607037,vesc,0.00021733189007890484,0.00021733189007890484,nan,nan,0.01,1,0,1,0,0,1786619095.8607037,nan,0.0019695210185193849,-0.00028640112899470504,0.00021733189007890484,-0.06683600751653973,0.2510084254559839,9.5774566431712174
1786619095.8810198,1786619095.8807356,vesc,0.0012546685047729958,0.0012546685047729958,nan,nan,0.01,1,0,1,0,0,1786619095.8807356,nan,-0.00017335514220734541,-0.0013544577229817802,0.0012546685047729958,-0.11445220722503446,0.20317408804922366,9.552817644800939
1786619095.9009538,1786619095.9007175,vesc,0.0012575316630191562,0.0012575316630191562,nan,nan,0.01,1,0,1,0,0,1786619095.9007175,nan,-0.00017335514220734541,-0.0002891974481392882,0.0012575316630191562,-0.10977485477161597,0.2462583847998765,9.5625696314832567
1786619095.9210007,1786619095.9207201,vesc,0.0012575316630191562,0.0012575316630191562,nan,nan,0.01,1,0,1,0,0,1786619095.9207201,nan,-0.00017335514220734541,-0.0002891974481392882,0.0012575316630191562,-0.10571546167635137,0.18382057085878145,9.6247243670844682
1786619095.941381,1786619095.9409297,vesc,-0.0019226731801347467,-0.0019226731801347467,nan,nan,0.01,1,0,1,0,0,1786619095.9409297,nan,0.00092931734446425576,0.00078461823170508345,-0.0019226731801347467,-0.077314291504156252,0.17416239544660073,9.6537733356884701
1786619095.9610999,1786619095.9607756,vesc,0.00020770137032592652,0.00020770137032592652,nan,nan,0.01,1,0,1,0,0,1786619095.9607756,nan,0.00090432992344739716,0.00077889243536141293,0.00020770137032592652,-0.10504133250043335,0.25582539846162611,9.5674415317732837
1786619095.9810343,1786619095.9807341,vesc,0.0012296809537189744,0.0012296809537189744,nan,nan,0.01,1,0,1,0,0,1786619095.9807341,nan,-0.0023037368122026708,-0.0013543901036572276,0.0012296809537189744,-0.13417283821141002,0.20783596365305002,9.6005028599296338
1786619096.001195,1786619096.0008116,vesc,0.00016735691800802484,0.00016735691800802484,nan,nan,0.01,1,0,1,0,0,1786619096.0008116,nan,-0.0022912428416199163,-0.00028626693064290023,0.00016735691800802484,-0.096079871135594352,0.22215332860425185,9.6201495053622921
1786619096.021044,1786619096.0207267,vesc,0.0023284454335429122,0.0023284454335429122,nan,nan,0.01,1,0,1,0,0,1786619096.0207267,nan,-0.00018584859264144957,0.0018384612436711616,0.0023284454335429122,-0.086556638502915284,0.22214015409592136,9.6250518111750125
1786619096.0411587,1786619096.0408254,vesc,-0.0019351668906431761,-0.0019351668906431761,nan,nan,0.01,1,0,1,0,0,1786619096.0408254,nan,-0.00013587375060773214,0.00078465256151601006,-0.0019351668906431761,-0.1334986907629423,0.20799045806072591,9.5430270664936643
1786619096.0610352,1786619096.0607603,vesc,0.0012479011107568872,0.0012479011107568872,nan,nan,0.01,1,0,1,0,0,1786619096.0607603,nan,-0.0012385462372793334,0.00077609715651413066,0.0012479011107568872,-0.049418722782037072,0.21228854547266351,9.7260589575624863
1786619096.0809972,1786619096.0806925,vesc,0.0023198556987301055,0.0023198556987301055,nan,nan,0.01,1,0,1,0,0,1786619096.0806925,nan,-0.00018584859264144957,-0.0013573206211536155,0.0023198556987301055,-0.1043109969616518,0.24162269375976386,9.5051359380017857
1786619096.1013045,1786619096.1008046,vesc,-0.00089210395945676425,-0.00089210395945676425,nan,nan,0.01,1,0,1,0,0,1786619096.1008046,nan,-0.0022787499113344628,0.001847116517213919,-0.00089210395945676425,-0.10526603004403956,0.20787367819562164,9.5864707112066299
1786619096.121156,1786619096.1208036,vesc,-0.00011713591562550277,-0.00011713591562550277,nan,nan,0.01,1,0,1,0,0,1786619096.1208036,nan,-0.026790641149167543,0.00077976420449949368,-0.00011713591562550277,-0.091290160774097906,0.24610328739806064,9.6202699580098852
1786619096.1410997,1786619096.1407807,vesc,0.0014824189723195347,0.0014824189723195347,nan,nan,0.01,1,0,1,0,0,1786619096.1407807,nan,0.01900008560938574,-0.00028980082057375927,0.0014824189723195347,-0.11467692304119037,0.20312257773163189,9.5719766324273223
1786619096.1613677,1786619096.1607747,vesc,0.00027407415863802147,0.00027407415863802147,nan,nan,0.01,1,0,1,0,0,1786619096.1607747,nan,0.0072954770140279757,-0.0024170902068424206,0.00027407415863802147,-0.074827927394532701,0.17363441012314773,9.8502070456059982
1786619096.1810393,1786619096.1807163,vesc,0.00032977554472909417,0.00032977554472909417,nan,nan,0.01,1,0,1,0,0,1786619096.1807163,nan,0.011556241394315927,-0.00028670281521194055,0.00032977554472909417,-0.11828686623159346,0.21776314754184867,9.4713752828234874
1786619096.2012856,1786619096.2009187,vesc,-0.00083536172340693837,-0.00083536172340693837,nan,nan,0.01,1,0,1,0,0,1786619096.2009187,nan,0.0030472060841741275,-0.00028357152033649583,-0.00083536172340693837,-0.076359240149218799,0.22707147671755834,9.5724900179835686
1786619096.2215164,1786619096.2208152,vesc,0.0011921996921565236,0.0011921996921565236,nan,nan,0.01,1,0,1,0,0,1786619096.2208152,nan,-0.0054993106175672858,-0.0013542902351163495,0.0011921996921565236,-0.1106737180362396,0.23168233536263472,9.6391658209206525
1786619096.2410934,1786619096.2407465,vesc,0.0012257768479861889,0.0012257768479861889,nan,nan,0.01,1,0,1,0,0,1786619096.2407465,nan,-0.0033689294677206097,0.0018414250506811755,0.0012257768479861889,-0.096473132950142038,0.23164325037883593,9.6537031690976391
1786619096.2610667,1786619096.2607789,vesc,0.00019911170053170147,0.00019911170053170147,nan,nan,0.01,1,0,1,0,0,1786619096.2607789,nan,0.00090432992344739716,-0.0024168883891660629,0.00019911170053170147,-0.12002842294307658,0.14551374186132904,9.6196630169991977
1786619096.2810652,1786619096.2807827,vesc,0.00025481310287741948,0.00025481310287741948,nan,nan,0.01,1,0,1,0,0,1786619096.2807827,nan,0.0051650948238839995,-0.0002865020378328838,0.00025481310287741948,-0.076471598057296752,0.22704573069503731,9.5820700965183505
1786619096.3012106,1786619096.3007591,vesc,0.0012757519500942313,0.0012757519500942313,nan,nan,0.01,1,0,1,0,0,1786619096.3007591,nan,0.00089183595286464255,0.0018412908523293707,0.0012757519500942313,-0.072299865326503898,0.24127403523902302,9.6348517450277313
1786619096.3211129,1786619096.320756,vesc,0.0012575316630191562,0.0012575316630191562,nan,nan,0.01,1,0,1,0,0,1786619096.320756,nan,-0.00017335514220734541,-0.0002891974481392882,0.0012575316630191562,-0.11129169566694319,0.245910786087018,9.6918913361573686
1786619096.3411567,1786619096.3407891,vesc,0.0012450379525107266,0.0012450379525107266,nan,nan,0.01,1,0,1,0,0,1786619096.3407891,nan,-0.0012385462372793334,-0.00028916311832836143,0.0012450379525107266,-0.11417130331856473,0.19365840197956885,9.5288440596003738
1786619096.3610673,1786619096.3607764,vesc,0.0012950129245816069,0.0012950129245816069,nan,nan,0.01,1,0,1,0,0,1786619096.3607764,nan,0.0030222186631572692,-0.00028929731668016619,0.0012950129245816069,-0.063282234143900773,0.17408470056529524,9.6826808016676296
1786619096.3810596,1786619096.3807573,vesc,0.00017985066102574486,0.00017985066102574486,nan,nan,0.01,1,0,1,0,0,1786619096.3807573,nan,-0.0012260522666965789,-0.00028630022015652622,0.00017985066102574486,-0.053365739696674019,0.24601196119468227,9.6542481296197593
1786619096.4011519,1786619096.4008195,vesc,-0.00087570614321554941,-0.00087570614321554941,nan,nan,0.01,1,0,1,0,0,1786619096.4008195,nan,-0.00014836720104183631,-0.0013487319266381099,-0.00087570614321554941,-0.14363990102632496,0.22702210428828096,9.5908631397926456
1786619096.4212458,1786619096.4209187,vesc,0.00019520762730820652,0.00019520762730820652,nan,nan,0.01,1,0,1,0,0,1786619096.4209187,nan,-0.00016086117162459086,0.00077892676517233987,0.00019520762730820652,-0.1051536904085113,0.22705950819750775,9.5769432576149711
1786619096.4412048,1786619096.4408715,vesc,0.00016058962151978823,0.00016058962151978823,nan,nan,0.01,1,0,1,0,0,1786619096.4408715,nan,-0.0033564354971378557,0.0018442879488530107,0.00016058962151978823,-0.082497254543925536,0.22197264963286223,9.6873737771510378
1786619096.4610949,1786619096.4608107,vesc,0.0012325442420022975,0.0012325442420022975,nan,nan,0.01,1,0,1,0,0,1786619096.4608107,nan,-0.0023037368122026708,-0.00028912982881473543,0.0012325442420022975,-0.14307811148593519,0.2319408553957274,9.5429791193232631
1786619096.4810665,1786619096.4807453,vesc,0.00017985066102574486,0.00017985066102574486,nan,nan,0.01,1,0,1,0,0,1786619096.4807453,nan,-0.0012260522666965789,-0.00028630022015652622,0.00017985066102574486,-0.059166680367146895,0.19788016495142813,9.7402770477511922
1786619096.50123,1786619096.5008397,vesc,0.00017698743776100315,0.00017698743776100315,nan,nan,0.01,1,0,1,0,0,1786619096.5008397,nan,-0.0012260522666965789,-0.001351561535296319,0.00017698743776100315,-0.091964308222565627,0.18367850178489853,9.6775796905142215
1786619096.5214202,1786619096.5209448,vesc,0.00017022014127276652,0.00017022014127276652,nan,nan,0.01,1,0,1,0,0,1786619096.5209448,nan,-0.0022912438819172173,0.00077899334419959175,0.00017022014127276652,-0.10047633795509281,0.21745357400490661,9.5865525722292659
1786619096.541223,1786619096.5408247,vesc,0.0012354074002484579,0.0012354074002484579,nan,nan,0.01,1,0,1,0,0,1786619096.5408247,nan,-0.0023037378524999718,0.0007761304460277566,0.0012354074002484579,-0.067566333919046428,0.20294083895235993,9.6395938371247212
1786619096.5609663,1786619096.5606608,vesc,0.0023352125674846952,0.0023352125674846952,nan,nan,0.01,1,0,1,0,0,1786619096.5606608,nan,0.00087934250243053844,-0.0002920936358247494,0.0023352125674846952,-0.11456456513311242,0.19835832103186135,9.5623848594607352
1786619096.5809321,1786619096.5807393,vesc,0.00022019511334364655,0.00022019511334364655,nan,nan,0.01,1,0,1,0,0,1786619096.5807393,nan,0.0019695210185193849,0.00077885914584778699,0.00022019511334364655,-0.039446049380771342,0.24590852029085575,9.6927333352473397
1786619096.6016941,1786619096.6010633,vesc,0.00017698743776100315,0.00017698743776100315,nan,nan,0.01,1,0,1,0,0,1786619096.6010633,nan,-0.0012260522666965789,-0.001351561535296319,0.00017698743776100315,-0.13321778685647256,0.19368475099622984,9.519039447974933
1786619096.6214356,1786619096.6210079,vesc,-0.0019533871777182511,-0.0019533871777182511,nan,nan,0.01,1,0,1,0,0,1786619096.6210079,nan,-0.0012010648456797202,-0.0013458357389526487,-0.0019533871777182511,-0.082104001865652698,0.19332262560636337,9.653768657915748
1786619096.6412094,1786619096.6407173,vesc,0.00020197492379644315,0.00020197492379644315,nan,nan,0.01,1,0,1,0,0,1786619096.6407173,nan,0.00090432992344739716,-0.0013516281143235711,0.00020197492379644315,-0.10616491158121288,0.17892756577385605,9.6630283090190687
1786619096.661082,1786619096.6607733,vesc,-0.0019630177299805205,-0.0019630177299805205,nan,nan,0.01,1,0,1,0,0,1786619096.6607733,nan,-0.0022662549004544073,-0.00028054113429922987,-0.0019630177299805205,-0.048070418748826782,0.24133766025706294,9.6111833844972807
1786619096.6810038,1786619096.6807523,vesc,0.00020197492379644315,0.00020197492379644315,nan,nan,0.01,1,0,1,0,0,1786619096.6807523,nan,0.00090432992344739716,-0.0013516281143235711,0.00020197492379644315,-0.096079871135594352,0.20299324462488677,9.6200980498623494
1786619096.7016981,1786619096.7010067,vesc,0.0012268176654356515,0.0012268176654356515,nan,nan,0.01,1,0,1,0,0,1786619096.7010067,nan,-0.0023037368122026708,-0.0024196514187970202,0.0012268176654356515,-0.10977485477161597,0.23188832181535268,9.5625310398582997
1786619096.7219656,1786619096.7209663,vesc,-0.00092568111528642941,-0.00092568111528642941,nan,nan,0.01,1,0,1,0,0,1786619096.7209663,nan,-0.0044091310611811384,-0.001348597728286305,-0.00092568111528642941,-0.091683422588645591,0.19811295723454947,9.6536692552454042
1786619096.7411425,1786619096.7407579,vesc,0.0023255820152224267,0.0023255820152224267,nan,nan,0.01,1,0,1,0,0,1786619096.7407579,nan,-0.00018584859264144957,0.00077320096882866945,0.0023255820152224267,-0.091964308222565627,0.16930843880037472,9.6775410988892645
1786619096.7613649,1786619096.7608306,vesc,0.0012700253735275855,0.0012700253735275855,nan,nan,0.01,1,0,1,0,0,1786619096.7608306,nan,0.00089183595286464255,-0.0002892307376529142,0.0012700253735275855,-0.11862393995582732,0.24642603544333319,9.5001915322345667
1786619096.7821097,1786619096.7809217,vesc,-0.0008535818804448511,-0.0008535818804448511,nan,nan,0.01,1,0,1,0,0,1786619096.7809217,nan,0.0019820149891021394,-0.0024140598208051544,-0.0008535818804448511,-0.12476194521425921,0.1886369591428334,9.614932619334013
1786619096.8016868,1786619096.8012908,vesc,0.00020197492379644315,0.00020197492379644315,nan,nan,0.01,1,0,1,0,0,1786619096.8012908,nan,0.00090432992344739716,-0.0013516281143235711,0.00020197492379644315,-0.095574269685518409,0.26537940206799249,9.5771584351601859
1786619096.8211019,1786619096.8207614,vesc,0.00019234440404346486,0.00019234440404346486,nan,nan,0.01,1,0,1,0,0,1786619096.8207614,nan,-0.00016086117162459086,-0.00028633454996745305,0.00019234440404346486,-0.072693118004776736,0.19807374434290281,9.6682639061382361
1786619096.841141,1786619096.8407905,vesc,-0.00091032411649467708,-0.00091032411649467708,nan,nan,0.01,1,0,1,0,0,1786619096.8407905,nan,-0.0033439404862578002,-0.00028337074295743903,-0.00091032411649467708,-0.10030779195670103,0.17917201594368315,9.5720807128703882
1786619096.8611741,1786619096.8607428,vesc,0.0012642990570352647,0.0012642990570352647,nan,nan,0.01,1,0,1,0,0,1786619096.8607428,nan,0.00089183595286464255,-0.0024197512873378982,0.0012642990570352647,-0.063675495958448458,0.21231474830892694,9.7163116486528907
1786619096.8812335,1786619096.8808305,vesc,-0.0008324984351236154,-0.0008324984351236154,nan,nan,0.01,1,0,1,0,0,1786619096.8808305,nan,0.0030472060841741275,0.0007816887545059962,-0.0008324984351236154,-0.16212458588756817,0.22717718341754711,9.5331616438228366
1786619096.9012222,1786619096.9008276,vesc,0.00025767632614216121,0.00025767632614216121,nan,nan,0.01,1,0,1,0,0,1786619096.9008276,nan,0.0051650948238839995,0.00077875823700960817,0.00025767632614216121,-0.11490163885734628,0.23181121165563745,9.5912128033036197
1786619096.9214125,1786619096.9208934,vesc,0.00024231937611434481,0.00024231937611434481,nan,nan,0.01,1,0,1,0,0,1786619096.9208934,nan,0.004099903468737686,-0.00028646874831925781,0.00024231937611434481,-0.091290160774097906,0.19341303818225697,9.6201284553850428
1786619096.9413671,1786619096.9410033,vesc,0.00020197492379644315,0.00020197492379644315,nan,nan,0.01,1,0,1,0,0,1786619096.9410033,nan,0.00090432992344739716,-0.0013516281143235711,0.00020197492379644315,-0.10036398004701486,0.18873919405838002,9.5768964798877505
1786619096.9613364,1786619096.9609432,vesc,0.0012229136897400283,0.0012229136897400283,nan,nan,0.01,1,0,1,0,0,1786619096.9609432,nan,-0.0033689294677206097,0.00077616373554138254,0.0012229136897400283,-0.081373675463146,0.27492035907387624,9.5917215110871439
1786619096.981127,1786619096.9807887,vesc,-0.0009324483792653754,-0.0009324483792653754,nan,nan,0.01,1,0,1,0,0,1786619096.9807887,nan,-0.0054743237166990774,0.00078195715120960572,-0.0009324483792653754,-0.16652103443451693,0.2991177830082119,9.4997705326895812
1786619097.0011415,1786619097.0007865,vesc,0.0012075566909482761,0.0012075566909482761,nan,nan,0.01,1,0,1,0,0,1786619097.0007865,nan,-0.0044341190023466466,-0.00028906324978748344,0.0012075566909482761,-0.059166680367146895,0.15955997872014827,9.7401741367513068
1786619097.0210571,1786619097.0206797,vesc,0.001304643346806713,0.001304643346806713,nan,nan,0.01,1,0,1,0,0,1786619097.0206797,nan,0.0040874097582292573,-0.001354591921333585,0.001304643346806713,-0.10554693395050929,0.14074901007526641,9.6102396438506048
1786619097.041147,1786619097.0407386,vesc,0.00021446866681416318,0.00021446866681416318,nan,nan,0.01,1,0,1,0,0,1786619097.0407386,nan,0.0019695210185193849,-0.0013516614038371971,0.00021446866681416318,-0.095293365779048678,0.19359344306540116,9.5530164501416266
1786619097.0610273,1786619097.060719,vesc,-0.0008824734071944954,-0.0008824734071944954,nan,nan,0.01,1,0,1,0,0,1786619097.060719,nan,-0.0012135582961138242,0.00078182295285780096,-0.0008824734071944954,-0.081429854417184977,0.20305716200372181,9.5963185922297498
1786619097.0809643,1786619097.0806489,vesc,-0.00089496711770292476,-0.00089496711770292476,nan,nan,0.01,1,0,1,0,0,1786619097.0806489,nan,-0.0022787499113344628,0.00078185624237142701,-0.00089496711770292476,-0.096023701317830223,0.29401652567440628,9.6155535936628667
1786619097.1012394,1786619097.100893,vesc,-0.0019533871777182511,-0.0019533871777182511,nan,nan,0.01,1,0,1,0,0,1786619097.100893,nan,-0.0012010648456797202,-0.0013458357389526487,-0.0019533871777182511,-0.068577564228022858,0.21707916946164474,9.725847288346813
1786619097.121139,1786619097.1207902,vesc,0.0012575316630191562,0.0012575316630191562,nan,nan,0.01,1,0,1,0,0,1786619097.1207902,nan,-0.00017335514220734541,-0.0002891974481392882,0.0012575316630191562,-0.11039281412976987,0.20779660458100579,9.6151524746519499
1786619097.1411879,1786619097.1408269,vesc,0.00023268885636136652,0.00023268885636136652,nan,nan,0.01,1,0,1,0,0,1786619097.1408269,nan,0.0030347123736656984,0.00077882585633416094,0.00023268885636136652,-0.1002516221389369,0.19355496107574233,9.5673292652279542
1786619097.1610487,1786619097.160764,vesc,-0.00087570614321554941,-0.00087570614321554941,nan,nan,0.01,1,0,1,0,0,1786619097.160764,nan,-0.00014836720104183631,-0.0013487319266381099,-0.00087570614321554941,-0.044685191374579603,0.24580568238116918,9.7309951772274417
1786619097.1811671,1786619097.180769,vesc,0.00014523265523732652,0.00014523265523732652,nan,nan,0.01,1,0,1,0,0,1786619097.180769,nan,-0.0044216260720611935,0.00077906096352414452,0.00014523265523732652,-0.11377805977656674,0.28475893936920116,9.4955605372397258
1786619097.2011805,1786619097.2007992,vesc,0.00019234440404346486,0.00019234440404346486,nan,nan,0.01,1,0,1,0,0,1786619097.2007992,nan,-0.00016086117162459086,-0.00028633454996745305,0.00019234440404346486,-0.083171401992393257,0.16433790328709108,9.7446963735303598
1786619097.2211142,1786619097.2207847,vesc,-0.00084499214563204465,-0.00084499214563204465,nan,nan,0.01,1,0,1,0,0,1786619097.2207847,nan,0.0019820149891021394,0.00078172204401962214,-0.00084499214563204465,-0.095967513227516399,0.21259903263709035,9.6105448685207193
1786619097.2411559,1786619097.2408285,vesc,0.00018948118077872315,0.00018948118077872315,nan,nan,0.01,1,0,1,0,0,1786619097.2408285,nan,-0.00016086117162459086,-0.001351594824809945,0.00018948118077872315,-0.081766928141418838,0.23651007090004761,9.6251465360726343
1786619097.2610347,1786619097.2606966,vesc,-0.0009324483792653754,-0.0009324483792653754,nan,nan,0.01,1,0,1,0,0,1786619097.2606966,nan,-0.0054743237166990774,0.00078195715120960572,-0.0009324483792653754,-0.12842807649497612,0.25116485675392752,9.5192499477474257
1786619097.281034,1786619097.2807496,vesc,0.00015772639825504655,0.00015772639825504655,nan,nan,0.01,1,0,1,0,0,1786619097.2807496,nan,-0.0033564354971378557,0.0007790266337132178,0.00015772639825504655,-0.063731674912487435,0.21230188443394127,9.7211005184771011
1786619097.3010602,1786619097.3007581,vesc,-0.0008824734071944954,-0.0008824734071944954,nan,nan,0.01,1,0,1,0,0,1786619097.3007581,nan,-0.0012135582961138242,0.00078182295285780096,-0.0008824734071944954,-0.067847228689241312,0.16455629680105233,9.6634399530186101
1786619097.3210025,1786619097.3206844,vesc,0.00022019511334364655,0.00022019511334364655,nan,nan,0.01,1,0,1,0,0,1786619097.3206844,nan,0.0019695210185193849,0.00077885914584778699,0.00022019511334364655,-0.13467845793403566,0.20293007642058924,9.6435968411316253
1786619097.3410189,1786619097.3407199,vesc,0.0023659268251425255,0.0023659268251425255,nan,nan,0.01,1,0,1,0,0,1786619097.3407199,nan,0.0030097246925745143,0.0018383603348329826,0.0023659268251425255,-0.11478928094926832,0.18393674772974578,9.5815040860189811
1786619097.3609748,1786619097.360709,vesc,0.00020197492379644315,0.00020197492379644315,nan,nan,0.01,1,0,1,0,0,1786619097.360709,nan,0.00090432992344739716,-0.0013516281143235711,0.00020197492379644315,-0.11918574776876678,0.24150728433588675,9.5480755527039491
1786619097.3811188,1786619097.3807855,vesc,0.0022852377254509782,0.0022852377254509782,nan,nan,0.01,1,0,1,0,0,1786619097.3807855,nan,-0.0033814223980060637,-0.00029195943747294459,0.0022852377254509782,-0.076977217779922391,0.2604600296938564,9.6252669887202273
1786619097.4012854,1786619097.4009607,vesc,0.0012507643990402101,0.0012507643990402101,nan,nan,0.01,1,0,1,0,0,1786619097.4009607,nan,-0.0012385462372793334,0.0018413574313566226,0.0012507643990402101,-0.13851311694059465,0.23667923816512904,9.5622071040972969
1786619097.4216838,1786619097.4212947,vesc,0.0012489419282063498,0.0012489419282063498,nan,nan,0.01,1,0,1,0,0,1786619097.4212947,nan,-0.00017335514220734541,-0.0034849793129640648,0.0012489419282063498,-0.072299865326503898,0.20774388827513413,9.6347616979028317
1786619097.4415829,1786619097.4411626,vesc,-0.00088819985372397866,-0.00088819985372397866,nan,nan,0.01,1,0,1,0,0,1786619097.4411626,nan,-0.0012135582961138242,-0.001348698637124484,-0.00088819985372397866,-0.091908138404801498,0.17890136293759262,9.6727767873718449
1786619097.461092,1786619097.4607849,vesc,0.0012700253735275855,0.0012700253735275855,nan,nan,0.01,1,0,1,0,0,1786619097.4607849,nan,0.00089183595286464255,-0.0002892307376529142,0.0012700253735275855,-0.11417130331856473,0.25592869318505507,9.5290112899751875
1786619097.4809887,1786619097.4807668,vesc,0.00017985066102574486,0.00017985066102574486,nan,nan,0.01,1,0,1,0,0,1786619097.4807668,nan,-0.0012260522666965789,-0.00028630022015652622,0.00017985066102574486,-0.073198737727402374,0.19316783883789235,9.7113578873402275
1786619097.5009797,1786619097.5006499,vesc,0.001217187243210545,0.001217187243210545,nan,nan,0.01,1,0,1,0,0,1786619097.5006499,nan,-0.0033689284274233092,-0.0013543568141436014,0.001217187243210545,-0.12019696894146836,0.19337532363968535,9.6341606041080468
1786619097.5209975,1786619097.5207188,vesc,-0.0019380303089636616,-0.0019380303089636616,nan,nan,0.01,1,0,1,0,0,1786619097.5207188,nan,-0.00013587375060773214,-0.00028060875362378264,-0.0019380303089636616,-0.086612808320679413,0.222127271948386,9.6298418504424035
1786619097.5411177,1786619097.5407841,vesc,0.00017985066102574486,0.00017985066102574486,nan,nan,0.01,1,0,1,0,0,1786619097.5407841,nan,-0.0012260522666965789,-0.00028630022015652622,0.00017985066102574486,-0.091346348864411731,0.19819019530211257,9.6249313585274194
1786619097.5610502,1786619097.5607219,vesc,0.00044534181427412461,0.00044534181427412461,nan,nan,0.01,1,0,1,0,0,1786619097.5607219,nan,0.024338535575477084,-0.01307023182926916,0.00044534181427412461,-0.15451143769221432,0.23630635024349189,9.7009393180450161
1786619097.5810924,1786619097.5808513,vesc,0.0010755926376713213,0.0010755926376713213,nan,nan,0.01,1,0,1,0,0,1786619097.5808513,nan,-0.019346797974395032,0.015690315248419066,0.0010755926376713213,-0.033547240934129086,0.41491102179167783,9.1902668699775631
1786619097.6010923,1786619097.6007421,vesc,0.0035302821798198348,0.0035302821798198348,nan,nan,0.01,1,0,1,0,0,1786619097.6007421,nan,0.013649143753306241,-0.0077521820932467435,0.0035302821798198348,-0.13522575734251685,0.062796284821022397,10.098300908022793
1786619097.6212761,1786619097.6208963,vesc,0.0022659766209264399,0.0022659766209264399,nan,nan,0.01,1,0,1,0,0,1786619097.6208963,nan,-0.0055118056284473409,0.0018386287315365923,0.0022659766209264399,-0.080010881298027137,-0.04200654522450975,9.8830999739443541
1786619097.6411045,1786619097.6408114,vesc,-0.0026466255644828282,-0.0026466255644828282,nan,nan,0.01,1,0,1,0,0,1786619097.6408114,nan,0.030767163017359975,-0.0024092390831131909,-0.0026466255644828282,-0.11851158204774936,0.083591031096151625,9.490174081950272
1786619097.6611006,1786619097.6607716,vesc,-0.0040280602770692703,-0.0040280602770692703,nan,nan,0.01,1,0,1,0,0,1786619097.6607716,nan,0.0030846874757737407,0.00079027744902150177,-0.0040280602770692703,-0.073718829309386891,0.32826701309239326,9.3476452707170097
1786619097.6823409,1786619097.6812403,vesc,0.0022352628834172604,0.0022352628834172604,nan,nan,0.01,1,0,1,0,0,1786619097.6812403,nan,-0.0076421867782940156,-0.00029182523912113983,0.0022352628834172604,-0.14358373120856083,0.49527621696457658,9.5867946469676326
1786619097.7014525,1786619097.7010815,vesc,-0.0021715070930025215,-0.0021715070930025215,nan,nan,0.01,1,0,1,0,0,1786619097.7010815,nan,-0.01930931606264677,-0.003475786205716788,-0.0021715070930025215,-0.15033971409769631,0.2840648017513665,9.7538110136792966
1786619097.7212501,1786619097.7208991,vesc,-0.00094780537805712773,-0.00094780537805712773,nan,nan,0.01,1,0,1,0,0,1786619097.7208991,nan,-0.0065395132513251146,-0.00028326983411926026,-0.00094780537805712773,-0.059222850184911024,0.015846466727374775,9.7445782597691277
1786619097.7411101,1786619097.740808,vesc,0.0034571425176402821,0.0034571425176402821,nan,nan,0.01,1,0,1,0,0,1786619097.740808,nan,0.0061928045273563744,-0.0024256456118443002,0.0034571425176402821,-0.080868046604245514,0.011585015777576757,9.5479059834427744
1786619097.7613299,1786619097.7609921,vesc,0.002446615404685422,0.002446615404685422,nan,nan,0.01,1,0,1,0,0,1786619097.7609921,nan,0.0094008712630064429,0.0039686806272875609,0.002446615404685422,-0.095686627593596363,0.23661351180387413,9.5866601610018733
1786619097.7811646,1786619097.7808299,vesc,-0.0019159057861186379,-0.0019159057861186379,nan,nan,0.01,1,0,1,0,0,1786619097.7808299,nan,0.0019945084395362441,-0.0013459356074935265,-0.0019159057861186379,-0.13484700393242743,0.33701207265118782,9.6583271474333969
1786619097.8009899,1786619097.8007703,vesc,0.00011061464944890823,0.00011061464944890823,nan,nan,0.01,1,0,1,0,0,1786619097.8007703,nan,-0.0076171998774258081,0.0018444221472048155,0.00011061464944890823,-0.077370470458195229,0.33701024539621827,9.6590007467053738
1786619097.8211927,1786619097.820852,vesc,0.00015199995172556318,0.00015199995172556318,nan,nan,0.01,1,0,1,0,0,1786619097.820852,nan,-0.0033564344568405551,-0.0013514939159717662,0.00015199995172556318,-0.10966249686353802,0.1696437766323875,9.552783730948704
1786619097.8410318,1786619097.8407507,vesc,-0.001944797442905445,-0.001944797442905445,nan,nan,0.01,1,0,1,0,0,1786619097.8407507,nan,-0.0012010648456797202,0.0018499461258721284,-0.001944797442905445,-0.091514876590253813,0.12630125220943711,9.6391073487616268
1786619097.861104,1786619097.8608255,vesc,0.0023602002485758793,0.0023602002485758793,nan,nan,0.01,1,0,1,0,0,1786619097.8608255,nan,0.0030097246925745143,-0.00029216021485200134,0.0023602002485758793,-0.049587259644154003,0.17871977033871822,9.740337858796579
1786619097.8811312,1786619097.880816,vesc,0.0013017801885605528,0.0013017801885605528,nan,nan,0.01,1,0,1,0,0,1786619097.880816,nan,0.0040874100183035823,-0.0024198521961760772,0.0013017801885605528,-0.11332862814425493,0.27528188146960275,9.457217418958578
1786619097.9011157,1786619097.9008198,vesc,-0.00086997969668606593,-0.00086997969668606593,nan,nan,0.01,1,0,1,0,0,1786619097.9008198,nan,-0.00014836720104183631,0.00078178966334417502,-0.00086997969668606593,-0.10509750231819748,0.31808280751957696,9.5723976319723079
1786619097.9211574,1786619097.9208241,vesc,0.0022948682777132472,0.0022948682777132472,nan,nan,0.01,1,0,1,0,0,1786619097.9208241,nan,-0.0023162307827854257,-0.0013572530018290626,0.0022948682777132472,-0.11050517203784782,0.20777084028593507,9.6247325531867318
1786619097.9418483,1786619097.94098,vesc,0.00016449369474328318,0.00016449369474328318,nan,nan,0.01,1,0,1,0,0,1786619097.94098,nan,-0.0022912428416199163,-0.0013515272054853921,0.00016449369474328318,-0.09630458695175026,0.18378166860047962,9.6392055819887901
1786619097.9612644,1786619097.9609091,vesc,0.00017985066102574486,0.00017985066102574486,nan,nan,0.01,1,0,1,0,0,1786619097.9609091,nan,-0.0012260522666965789,-0.00028630022015652622,0.00017985066102574486,-0.10644579721513292,0.15491308660707226,9.6869130165379147
1786619097.9811537,1786619097.9808092,vesc,0.0023198556987301055,0.0023198556987301055,nan,nan,0.01,1,0,1,0,0,1786619097.9808092,nan,-0.00018584859264144957,-0.0013573206211536155,0.0023198556987301055,-0.11924191758653091,0.22712433920382757,9.5528258309032026
1786619098.001178,1786619098.0008423,vesc,0.0012479011107568872,0.0012479011107568872,nan,nan,0.01,1,0,1,0,0,1786619098.0008423,nan,-0.0012385462372793334,0.00077609715651413066,0.0012479011107568872,-0.067959586597319266,0.20285071873726146,9.6731217731100969
1786619098.0211849,1786619098.0208392,vesc,0.00017412421449626149,0.00017412421449626149,nan,nan,0.01,1,0,1,0,0,1786619098.0208392,nan,-0.0012260522666965789,-0.0024168218101388111,0.00017412421449626149,-0.09591134340975227,0.26530214572787969,9.6058963318781707
1786619098.0412369,1786619098.040864,vesc,-0.00087961024894833511,-0.00087961024894833511,nan,nan,0.01,1,0,1,0,0,1786619098.040864,nan,-0.0012135582961138242,0.0018470832277002929,-0.00087961024894833511,-0.10594019576505698,0.17897905781889811,9.6438704908358659
1786619098.0615301,1786619098.0610478,vesc,-0.00085462269789431371,-0.00085462269789431371,nan,nan,0.01,1,0,1,0,0,1786619098.0610478,nan,0.00091682389403015165,0.001847016648673041,-0.00085462269789431371,-0.11462073495087655,0.15044521066336358,9.567045090535089
1786619098.0812092,1786619098.0809295,vesc,0.00018948118077872315,0.00018948118077872315,nan,nan,0.01,1,0,1,0,0,1786619098.0809295,nan,-0.00016086117162459086,-0.001351594824809945,0.00018948118077872315,-0.053702822557182728,0.2411447021322779,9.6829731624627584
1786619098.1013279,1786619098.1009653,vesc,0.00017985066102574486,0.00017985066102574486,nan,nan,0.01,1,0,1,0,0,1786619098.1009653,nan,-0.0012260522666965789,-0.00028630022015652622,0.00017985066102574486,-0.039558407288849295,0.22672269028896963,9.702261958282179
1786619098.1215613,1786619098.1208346,vesc,0.00017698743776100315,0.00017698743776100315,nan,nan,0.01,1,0,1,0,0,1786619098.1208346,nan,-0.0012260522666965789,-0.001351561535296319,0.00017698743776100315,-0.15755959134222763,0.25107565016631384,9.552441084096813
1786619098.1410534,1786619098.1407437,vesc,0.0012575316630191562,0.0012575316630191562,nan,nan,0.01,1,0,1,0,0,1786619098.1407437,nan,-0.00017335514220734541,-0.0002891974481392882,0.0012575316630191562,-0.10571546167635137,0.20777067583298781,9.6247886864593966
1786619098.1621513,1786619098.1610293,vesc,0.0012921496362982838,0.0012921496362982838,nan,nan,0.01,1,0,1,0,0,1786619098.1610293,nan,0.0030222186631572692,-0.001354558631819959,0.0012921496362982838,-0.087118428043305052,0.17890121675719506,9.6728329206445096
1786619098.1817827,1786619098.1811459,vesc,-0.00089783040598624762,-0.00089783040598624762,nan,nan,0.01,1,0,1,0,0,1786619098.1811459,nan,-0.0022787488710371622,-0.00028340403247106507,-0.00089783040598624762,-0.10064486568093489,0.24615509007644754,9.6009998732813528
1786619098.2012727,1786619098.200959,vesc,-0.0019159057861186379,-0.0019159057861186379,nan,nan,0.01,1,0,1,0,0,1786619098.200959,nan,0.0019945084395362441,-0.0013459356074935265,-0.0019159057861186379,-0.12972020157414743,0.17901843516349203,9.6292197066703693
1786619098.2218487,1786619098.2210522,vesc,-0.00086034914442379708,-0.00086034914442379708,nan,nan,0.01,1,0,1,0,0,1786619098.2210522,nan,0.00091682389403015165,-0.00028350494130924384,-0.00086034914442379708,-0.057818376333936605,0.23171928245811912,9.6254143385609723
1786619098.2413764,1786619098.240962,vesc,0.0012700253735275855,0.0012700253735275855,nan,nan,0.01,1,0,1,0,0,1786619098.240962,nan,0.00089183595286464255,-0.0002892307376529142,0.0012700253735275855,-0.10582783785697902,0.22211501106754028,9.634406187175955
1786619098.2617066,1786619098.2610719,vesc,-0.00086321230266995738,-0.00086321230266995738,nan,nan,0.01,1,0,1,0,0,1786619098.2610719,nan,0.00091682389403015165,-0.0013487652161517359,-0.00086321230266995738,-0.12876515021920998,0.20318740873795171,9.5478592057155538
1786619098.2811694,1786619098.2808185,vesc,0.00022982563309662484,0.00022982563309662484,nan,nan,0.01,1,0,1,0,0,1786619098.2808185,nan,0.0030347123736656984,-0.00028643441850833098,0.00022982563309662484,-0.044685191374579603,0.15479526520663534,9.730750763602714
1786619098.3013945,1786619098.3009379,vesc,0.0012393115059812433,0.0012393115059812433,nan,nan,0.01,1,0,1,0,0,1786619098.3009379,nan,-0.0012385462372793334,-0.0024196847083106463,0.0012393115059812433,-0.077763723136468066,0.16926937208912562,9.6920784470662511
1786619098.3211546,1786619098.3208573,vesc,0.0012853823723193377,0.0012853823723193377,nan,nan,0.01,1,0,1,0,0,1786619098.3208573,nan,0.0019570270479366309,0.00077599624767595173,0.0012853823723193377,-0.11490163885734628,0.23181121165563745,9.5912128033036197
1786619098.3412516,1786619098.3408673,vesc,0.00017985066102574486,0.00017985066102574486,nan,nan,0.01,1,0,1,0,0,1786619098.3408673,nan,-0.0012260522666965789,-0.00028630022015652622,0.00017985066102574486,-0.091458706772489684,0.20774449126927408,9.6345359953689922
1786619098.3612387,1786619098.3608215,vesc,0.00016449369474328318,0.00016449369474328318,nan,nan,0.01,1,0,1,0,0,1786619098.3608215,nan,-0.0022912428416199163,-0.0013515272054853921,0.00016449369474328318,-0.14319046939401314,0.20317498340415874,9.5524808451649506
1786619098.3813188,1786619098.3809822,vesc,0.00020483814706118484,0.00020483814706118484,nan,nan,0.01,1,0,1,0,0,1786619098.3809822,nan,0.00090432992344739716,-0.00028636783948107899,0.00020483814706118484,-0.049250185919920142,0.21232717364271991,9.7116900092034939
1786619098.4013627,1786619098.4008174,vesc,0.0023169925404839453,0.0023169925404839453,nan,nan,0.01,1,0,1,0,0,1786619098.4008174,nan,-0.00018584859264144957,-0.0024225808959961073,0.0023169925404839453,-0.16139426862133632,0.22734454170020868,9.4708958111194761
1786619098.4217644,1786619098.4213622,vesc,-0.00086711640840274296,-0.00086711640840274296,nan,nan,0.01,1,0,1,0,0,1786619098.4213622,nan,-0.00014836720104183631,0.0018470499381866669,-0.00086711640840274296,-0.072974012774971619,0.16926922590872806,9.6921345803389158
1786619098.4412601,1786619098.4408538,vesc,-0.00085748598617763668,-0.00085748598617763668,nan,nan,0.01,1,0,1,0,0,1786619098.4408538,nan,0.00091682389403015165,0.00078175533353324808,-0.00085748598617763668,-0.11490163885734628,0.21744114867111364,9.5911742116786627
1786619098.4613159,1786619098.4608862,vesc,-0.00089783040598624762,-0.00089783040598624762,nan,nan,0.01,1,0,1,0,0,1786619098.4608862,nan,-0.0022787488710371622,-0.00028340403247106507,-0.00089783040598624762,-0.095518081595204585,0.22228205871685702,9.572252621017924
1786619098.4814005,1786619098.4809349,vesc,-0.00087570614321554941,-0.00087570614321554941,nan,nan,0.01,1,0,1,0,0,1786619098.4809349,nan,-0.00014836720104183631,-0.0013487319266381099,-0.00087570614321554941,-0.11039281412976987,0.21258662557584707,9.6151653385269356
1786619098.5013337,1786619098.5009868,vesc,-0.00089106301197013917,-0.00089106301197013917,nan,nan,0.01,1,0,1,0,0,1786619098.5009868,nan,-0.0012135582961138242,-0.0024139589119669758,-0.00089106301197013917,-0.14775546393935368,0.20322663990214807,9.5332657242659025
1786619098.5212307,1786619098.5208926,vesc,0.0012728886618109084,0.0012728886618109084,nan,nan,0.01,1,0,1,0,0,1786619098.5208926,nan,0.00089183595286464255,0.00077602953718957789,0.0012728886618109084,-0.077482828366273182,0.15975370429202052,9.6681036924225054
1786619098.5414426,1786619098.5409896,vesc,0.0023448431197469642,0.0023448431197469642,nan,nan,0.01,1,0,1,0,0,1786619098.5409896,nan,0.0019445335975025262,-0.0013573872001808674,0.0023448431197469642,-0.10560310376827342,0.19342637714353472,9.6151700162996576
1786619098.5611856,1786619098.5608079,vesc,-0.00089210395945676425,-0.00089210395945676425,nan,nan,0.01,1,0,1,0,0,1786619098.5608079,nan,-0.0022787499113344628,0.001847116517213919,-0.00089210395945676425,-0.10549074586019547,0.21261220714542084,9.6056425627079989
1786619098.5817583,1786619098.58075,vesc,0.0012421747942645664,0.0012421747942645664,nan,nan,0.01,1,0,1,0,0,1786619098.58075,nan,-0.0012385462372793334,-0.0013544244334681541,0.0012421747942645664,-0.091683422588645591,0.18853289697231723,9.6536435274954329
1786619098.6011848,1786619098.6008427,vesc,0.00021733189007890484,0.00021733189007890484,nan,nan,0.01,1,0,1,0,0,1786619098.6008427,nan,0.0019695210185193849,-0.00028640112899470504,0.00021733189007890484,-0.043842507063994951,0.25078880768119305,9.6591621298642849
1786619098.6211641,1786619098.620785,vesc,0.00021160544354942147,0.00021160544354942147,nan,nan,0.01,1,0,1,0,0,1786619098.620785,nan,0.0019695210185193849,-0.0024169227189769897,0.00021160544354942147,-0.12938312784991357,0.18867571522073767,9.6005075377023559
1786619098.6411643,1786619098.6408162,vesc,-0.00087284285493222644,-0.00087284285493222644,nan,nan,0.01,1,0,1,0,0,1786619098.6408162,nan,-0.00014836720104183631,-0.00028347165179561784,-0.00087284285493222644,-0.10081341167932667,0.19342623096313716,9.6152273190155029
1786619098.6610246,1786619098.6607208,vesc,-0.00089783040598624762,-0.00089783040598624762,nan,nan,0.01,1,0,1,0,0,1786619098.6607208,nan,-0.0022787488710371622,-0.00028340403247106507,-0.00089783040598624762,-0.077819902090507043,0.20757667617287012,9.6969713973335274
1786619098.6812134,1786619098.6807854,vesc,0.0022977314359594074,0.0022977314359594074,nan,nan,0.01,1,0,1,0,0,1786619098.6807854,nan,-0.0023162307827854257,-0.00029199272698657058,0.0022977314359594074,-0.10504133250043335,0.27977550343583246,9.5675058511482121
1786619098.7013533,1786619098.7008376,vesc,-0.0019351668906431761,-0.0019351668906431761,nan,nan,0.01,1,0,1,0,0,1786619098.7008376,nan,-0.00013587375060773214,0.00078465256151601006,-0.0019351668906431761,-0.096248417133986131,0.25085484467579278,9.6345956369711985
1786619098.7213428,1786619098.7209089,vesc,0.00019911170053170147,0.00019911170053170147,nan,nan,0.01,1,0,1,0,0,1786619098.7209089,nan,0.00090432992344739716,-0.0024168883891660629,0.00019911170053170147,-0.11478928094926832,0.17435670574006323,9.5814783582690097
1786619098.7410247,1786619098.7406723,vesc,-0.00084499214563204465,-0.00084499214563204465,nan,nan,0.01,1,0,1,0,0,1786619098.7406723,nan,0.0019820149891021394,0.00078172204401962214,-0.00084499214563204465,-0.11540725857997192,0.19816519845412905,9.6342296012556972
1786619098.7614577,1786619098.7611067,vesc,0.0012479011107568872,0.0012479011107568872,nan,nan,0.01,1,0,1,0,0,1786619098.7611067,nan,-0.0012385462372793334,0.00077609715651413066,0.0012479011107568872,-0.086893712227149145,0.20290281377644348,9.6537382523930546
1786619098.7812037,1786619098.7808304,vesc,-0.0008824734071944954,-0.0008824734071944954,nan,nan,0.01,1,0,1,0,0,1786619098.7808304,nan,-0.0012135582961138242,0.00078182295285780096,-0.0008824734071944954,-0.14274103776170133,0.24159813545297304,9.5142657809120692
1786619098.8011038,1786619098.8008094,vesc,0.0012536276873235332,0.0012536276873235332,nan,nan,0.01,1,0,1,0,0,1786619098.8008094,nan,-0.0012385462372793334,0.002906617706199115,0.0012536276873235332,-0.068521376137709034,0.19314194663497375,9.7209929297044937
1786619098.8209784,1786619098.8207257,vesc,0.0012700253735275855,0.0012700253735275855,nan,nan,0.01,1,0,1,0,0,1786619098.8207257,nan,0.00089183595286464255,-0.0002892307376529142,0.0012700253735275855,-0.14313428130369932,0.20318784727914441,9.5476908058975596
1786619098.8411081,1786619098.8407793,vesc,-0.0040473213815938082,-0.0040473213815938082,nan,nan,0.01,1,0,1,0,0,1786619098.8407793,nan,0.00095430528562976498,0.0029208656180310382,-0.0040473213815938082,-0.086612808320679413,0.19338714597933837,9.6297646671924895
1786619098.8612056,1786619098.8608882,vesc,0.0012354074002484579,0.0012354074002484579,nan,nan,0.01,1,0,1,0,0,1786619098.8608882,nan,-0.0023037378524999718,0.0007761304460277566,0.0012354074002484579,-0.1008695814970908,0.18862332782076052,9.6200033249647277
1786619098.8811355,1786619098.8808196,vesc,0.00017985066102574486,0.00017985066102574486,nan,nan,0.01,1,0,1,0,0,1786619098.8808196,nan,-0.0012260522666965789,-0.00028630022015652622,0.00017985066102574486,-0.062720444603511005,0.22690367989370408,9.6349254199481038
1786619098.9010813,1786619098.9008217,vesc,-0.00087284285493222644,-0.00087284285493222644,nan,nan,0.01,1,0,1,0,0,1786619098.9008217,nan,-0.00014836720104183631,-0.00028347165179561784,-0.00087284285493222644,-0.058829606642913035,0.21232748427606474,9.7115777426581644
1786619098.9212542,1786619098.9210064,vesc,0.00018375473424923978,0.00018375473424923978,nan,nan,0.01,1,0,1,0,0,1786619098.9210064,nan,-0.00016086117162459086,-0.00348211641479223,0.00018375473424923978,-0.13316161703870844,0.20327767513344774,9.5142751364575133
1786619098.9410572,1786619098.9407835,vesc,-0.00087284285493222644,-0.00087284285493222644,nan,nan,0.01,1,0,1,0,0,1786619098.9407835,nan,-0.00014836720104183631,-0.00028347165179561784,-0.00087284285493222644,-0.072356044280542875,0.15983079617918605,9.6394219289771854
1786619098.9610708,1786619098.9607728,vesc,-0.00085071859216152813,-0.00085071859216152813,nan,nan,0.01,1,0,1,0,0,1786619098.9607728,nan,0.0019820149891021394,-0.0013487985056653618,-0.00085071859216152813,-0.081935465003535768,0.21731135875062613,9.639464028931684
1786619098.981071,1786619098.9807673,vesc,-0.00088533669547781837,-0.00088533669547781837,nan,nan,0.01,1,0,1,0,0,1786619098.9807673,nan,-0.0012135582961138242,-0.00028343732198469102,-0.00088533669547781837,-0.071625717878036177,0.260588613626064,9.577426237648524
1786619099.0010645,1786619099.0007763,vesc,0.00017985066102574486,0.00017985066102574486,nan,nan,0.01,1,0,1,0,0,1786619099.0007763,nan,-0.0012260522666965789,-0.00028630022015652622,0.00017985066102574486,-0.096978734400217981,0.18362717419280372,9.6966825448679401
1786619099.0210166,1786619099.0207844,vesc,0.00017698743776100315,0.00017698743776100315,nan,nan,0.01,1,0,1,0,0,1786619099.0207844,nan,-0.0012260522666965789,-0.001351561535296319,0.00017698743776100315,-0.086275734596445552,0.23657459127302261,9.6011425453493757
1786619099.0411103,1786619099.0407784,vesc,-0.00085071859216152813,-0.00085071859216152813,nan,nan,0.01,1,0,1,0,0,1786619099.0407784,nan,0.0019820149891021394,-0.0013487985056653618,-0.00085071859216152813,-0.12938312784991357,0.19825577548296991,9.6005332654523272
1786619099.0609705,1786619099.0607643,vesc,-0.00090069356423240813,-0.00090069356423240813,nan,nan,0.01,1,0,1,0,0,1786619099.0607643,nan,-0.0022787488710371622,-0.001348664307313557,-0.00090069356423240813,-0.11478928094926832,0.20309683170911086,9.5815567109621043
1786619099.081028,1786619099.0807726,vesc,0.0023352125674846952,0.0023352125674846952,nan,nan,0.01,1,0,1,0,0,1786619099.0807726,nan,0.00087934250243053844,-0.0002920936358247494,0.0023352125674846952,-0.068409027365905928,0.21232777663685987,9.7114654761128349
1786619099.1012573,1786619099.1009529,vesc,-0.001940893467209822,-0.001940893467209822,nan,nan,0.01,1,0,1,0,0,1786619099.1009529,nan,-0.00013587375060773214,-0.0013458690284662747,-0.001940893467209822,-0.068465197183670057,0.17399472653059433,9.7161526043803406
1786619099.1211855,1786619099.120919,vesc,0.0012853823723193377,0.0012853823723193377,nan,nan,0.01,1,0,1,0,0,1786619099.120919,nan,0.0019570270479366309,0.00077599624767595173,0.0012853823723193377,-0.10971868495385184,0.24627124867486216,9.5577795922158657
1786619099.1409497,1786619099.1407268,vesc,-0.0019323037323970157,-0.0019323037323970157,nan,nan,0.01,1,0,1,0,0,1786619099.1407268,nan,-0.00013587375060773214,0.001849912836358502,-0.0019323037323970157,-0.082272538727769629,0.21723412068306303,9.6682019256496687
1786619099.1612747,1786619099.1608109,vesc,0.00020197492379644315,0.00020197492379644315,nan,nan,0.01,1,0,1,0,0,1786619099.1608109,nan,0.00090432992344739716,-0.0013516281143235711,0.00020197492379644315,-0.115575786305814,0.19333656756178108,9.6485856857397039
1786619099.1810346,1786619099.180759,vesc,0.00019520762730820652,0.00019520762730820652,nan,nan,0.01,1,0,1,0,0,1786619099.180759,nan,-0.00016086117162459086,0.00077892676517233987,0.00019520762730820652,-0.044011034789837034,0.19805994856788267,9.6733895755984349
1786619099.2014673,1786619099.2011602,vesc,-0.00084785543391536762,-0.00084785543391536762,nan,nan,0.01,1,0,1,0,0,1786619099.2011602,nan,0.0019820149891021394,-0.00028353823082286983,-0.00084785543391536762,-0.14262867985362337,0.19851369252192264,9.5045710969455968
1786619099.2210464,1786619099.2207906,vesc,0.00021733189007890484,0.00021733189007890484,nan,nan,0.01,1,0,1,0,0,1786619099.2207906,nan,0.0019695210185193849,-0.00028640112899470504,0.00021733189007890484,-0.034881054835430803,0.19795667211700341,9.7118198173965311
1786619099.2411604,1786619099.240813,vesc,0.00020483814706118484,0.00020483814706118484,nan,nan,0.01,1,0,1,0,0,1786619099.240813,nan,0.00090432992344739716,-0.00028636783948107899,0.00020483814706118484,-0.1294392976676777,0.22219301658219059,9.6053876240946465
1786619099.2615182,1786619099.2612259,vesc,-0.00086034914442379708,-0.00086034914442379708,nan,nan,0.01,1,0,1,0,0,1786619099.2612259,nan,0.00091682389403015165,-0.00028350494130924384,-0.00086034914442379708,-0.090896917232099916,0.22224330263895276,9.5866777026495811
1786619099.2810202,1786619099.2807655,vesc,0.00021733189007890484,0.00021733189007890484,nan,nan,0.01,1,0,1,0,0,1786619099.2807655,nan,0.0019695210185193849,-0.00028640112899470504,0.00021733189007890484,-0.10464807068588566,0.17927516448671454,9.5337066043449568
1786619099.3011401,1786619099.3007929,vesc,0.00019807085057294823,0.00019807085057294823,nan,nan,0.01,1,0,1,0,0,1786619099.3007929,nan,-0.00016086117162459086,0.0018441870400148319,0.00019807085057294823,-0.12493049121265098,0.20296839395730082,9.6293401593179624
1786619099.3210483,1786619099.32075,vesc,0.00019911170053170147,0.00019911170053170147,nan,nan,0.01,1,0,1,0,0,1786619099.32075,nan,0.00090432992344739716,-0.0024168883891660629,0.00019911170053170147,-0.058380165874326373,0.21243046836614887,9.6732597674053977
1786619099.3411798,1786619099.3408277,vesc,-0.00086321230266995738,-0.00086321230266995738,nan,nan,0.01,1,0,1,0,0,1786619099.3408277,nan,0.00091682389403015165,-0.0013487652161517359,-0.00086321230266995738,-0.11445220722503446,0.21754415103374747,9.552856236425896
1786619099.361244,1786619099.3609149,vesc,0.00021733189007890484,0.00021733189007890484,nan,nan,0.01,1,0,1,0,0,1786619099.3609149,nan,0.0019695210185193849,-0.00028640112899470504,0.00021733189007890484,-0.11428366122664269,0.17447257197768273,9.5383715131920326
1786619099.3811202,1786619099.3808486,vesc,0.00018948118077872315,0.00018948118077872315,nan,nan,0.01,1,0,1,0,0,1786619099.3808486,nan,-0.00016086117162459086,-0.001351594824809945,0.00018948118077872315,-0.096248417133986131,0.17421449048578275,9.6343898149714278
1786619099.4010124,1786619099.4007404,vesc,-0.00087961024894833511,-0.00087961024894833511,nan,nan,0.01,1,0,1,0,0,1786619099.4007404,nan,-0.0012135582961138242,0.0018470832277002929,-0.00087961024894833511,-0.11405894541048678,0.25116441821273483,9.5194183475654199
1786619099.421227,1786619099.4208753,vesc,-0.00084499214563204465,-0.00084499214563204465,nan,nan,0.01,1,0,1,0,0,1786619099.4208753,nan,0.0019820149891021394,0.00078172204401962214,-0.00084499214563204465,-0.072412223234581852,0.19334806099553958,9.6443020153694761
1786619099.4412267,1786619099.4407821,vesc,-0.00085748598617763668,-0.00085748598617763668,nan,nan,0.01,1,0,1,0,0,1786619099.4407821,nan,0.00091682389403015165,0.00078175533353324808,-0.00085748598617763668,-0.10594019576505698,0.21250920478278701,9.6439605379607656
1786619099.4612684,1786619099.4608278,vesc,0.00021342781685540992,0.00021342781685540992,nan,nan,0.01,1,0,1,0,0,1786619099.4608278,nan,0.00090432992344739716,0.002909414025343698,0.00021342781685540992,-0.082272538727769629,0.19807403670369794,9.6681504701497261
1786619099.4810333,1786619099.4807689,vesc,0.00021446866681416318,0.00021446866681416318,nan,nan,0.01,1,0,1,0,0,1786619099.4807689,nan,0.0019695210185193849,-0.0013516614038371971,0.00021446866681416318,-0.13338633285486434,0.19843616209356441,9.533421260208911
1786619099.5016098,1786619099.5012312,vesc,-0.0019034120756102088,-0.0019034120756102088,nan,nan,0.01,1,0,1,0,0,1786619099.5012312,nan,0.003059700054756882,-0.0013459699373044535,-0.0019034120756102088,-0.14741839021511982,0.23204400393875879,9.5046050107978317
1786619099.5216305,1786619099.5212741,vesc,-0.0029657362413583205,-0.0029657362413583205,nan,nan,0.01,1,0,1,0,0,1786619099.5212741,nan,0.003072193765265312,-0.00027784572399282541,-0.0029657362413583205,-0.058661060644521257,0.18841598919936509,9.6971444749242437
1786619099.5411859,1786619099.5408735,vesc,0.00019911170053170147,0.00019911170053170147,nan,nan,0.01,1,0,1,0,0,1786619099.5408735,nan,0.00090432992344739716,-0.0024168883891660629,0.00019911170053170147,-0.095742797411360492,0.22702058766665623,9.591424472519293
